"view_history","rt","trial_type","trial_index","time_elapsed","internal_node_id","response","present","setSize","conjuction","task","correct","stimulus"
"[{""page_index"":0,""viewing_time"":26509},{""page_index"":1,""viewing_time"":2833}]","29342","instructions","0","29344","0.0-0.0","","","","","","",""
"","1262","canvas-keyboard-response","1","31115","0.0-1.0-0.0","f","true","40","false","response","true",""
"","null","html-keyboard-response","2","32619","0.0-1.0-1.0","null","","","","","","Correct!"
"","690","canvas-keyboard-response","3","33814","0.0-1.0-0.1","f","true","30","false","response","true",""
"","null","html-keyboard-response","4","35318","0.0-1.0-1.1","null","","","","","","Correct!"
"","1309","canvas-keyboard-response","5","37133","0.0-1.0-0.2","j","false","30","false","response","true",""
"","null","html-keyboard-response","6","38636","0.0-1.0-1.2","null","","","","","","Correct!"
"","1104","canvas-keyboard-response","7","40245","0.0-1.0-0.3","j","false","40","true","response","true",""
"","null","html-keyboard-response","8","41748","0.0-1.0-1.3","null","","","","","","Correct!"
"","1055","canvas-keyboard-response","9","43308","0.0-1.0-0.4","j","true","20","true","response","false",""
"","null","html-keyboard-response","10","44810","0.0-1.0-1.4","null","","","","","","Wrong"
"","1131","canvas-keyboard-response","11","46446","0.0-1.0-0.5","j","false","10","false","response","true",""
"","null","html-keyboard-response","12","47948","0.0-1.0-1.5","null","","","","","","Correct!"
"","639","canvas-keyboard-response","13","49092","0.0-1.0-0.6","f","true","10","true","response","true",""
"","null","html-keyboard-response","14","50593","0.0-1.0-1.6","null","","","","","","Correct!"
"","1043","canvas-keyboard-response","15","52140","0.0-1.0-0.7","j","false","30","false","response","true",""
"","null","html-keyboard-response","16","53643","0.0-1.0-1.7","null","","","","","","Correct!"
"","1178","canvas-keyboard-response","17","55324","0.0-1.0-0.8","f","true","10","false","response","true",""
"","null","html-keyboard-response","18","56827","0.0-1.0-1.8","null","","","","","","Correct!"
"","668","canvas-keyboard-response","19","57998","0.0-1.0-0.9","f","true","10","false","response","true",""
"","null","html-keyboard-response","20","59500","0.0-1.0-1.9","null","","","","","","Correct!"
"","1154","canvas-keyboard-response","21","61158","0.0-1.0-0.10","j","false","40","true","response","true",""
"","null","html-keyboard-response","22","62661","0.0-1.0-1.10","null","","","","","","Correct!"
"","767","canvas-keyboard-response","23","63931","0.0-1.0-0.11","f","true","30","true","response","true",""
"","null","html-keyboard-response","24","65433","0.0-1.0-1.11","null","","","","","","Correct!"
"","921","canvas-keyboard-response","25","66857","0.0-1.0-0.12","j","false","40","true","response","true",""
"","null","html-keyboard-response","26","68360","0.0-1.0-1.12","null","","","","","","Correct!"
"","844","canvas-keyboard-response","27","69707","0.0-1.0-0.13","f","true","10","true","response","true",""
"","null","html-keyboard-response","28","71209","0.0-1.0-1.13","null","","","","","","Correct!"
"","810","canvas-keyboard-response","29","72522","0.0-1.0-0.14","f","true","40","false","response","true",""
"","null","html-keyboard-response","30","74025","0.0-1.0-1.14","null","","","","","","Correct!"
"","1110","canvas-keyboard-response","31","75639","0.0-1.0-0.15","j","false","20","false","response","true",""
"","null","html-keyboard-response","32","77142","0.0-1.0-1.15","null","","","","","","Correct!"
"","1187","canvas-keyboard-response","33","78837","0.0-1.0-0.16","f","true","10","true","response","true",""
"","null","html-keyboard-response","34","80340","0.0-1.0-1.16","null","","","","","","Correct!"
"","762","canvas-keyboard-response","35","81609","0.0-1.0-0.17","j","false","10","true","response","true",""
"","null","html-keyboard-response","36","83111","0.0-1.0-1.17","null","","","","","","Correct!"
"","1150","canvas-keyboard-response","37","84765","0.0-1.0-0.18","f","true","20","true","response","true",""
"","null","html-keyboard-response","38","86268","0.0-1.0-1.18","null","","","","","","Correct!"
"","1117","canvas-keyboard-response","39","87890","0.0-1.0-0.19","j","false","40","true","response","true",""
"","null","html-keyboard-response","40","89392","0.0-1.0-1.19","null","","","","","","Correct!"
"","1138","canvas-keyboard-response","41","91034","0.0-1.0-0.20","f","true","30","true","response","true",""
"","null","html-keyboard-response","42","92537","0.0-1.0-1.20","null","","","","","","Correct!"
"","972","canvas-keyboard-response","43","94013","0.0-1.0-0.21","f","true","30","true","response","true",""
"","null","html-keyboard-response","44","95516","0.0-1.0-1.21","null","","","","","","Correct!"
"","1273","canvas-keyboard-response","45","97293","0.0-1.0-0.22","j","true","30","false","response","false",""
"","null","html-keyboard-response","46","98795","0.0-1.0-1.22","null","","","","","","Wrong"
"","1006","canvas-keyboard-response","47","100305","0.0-1.0-0.23","f","true","30","false","response","true",""
"","null","html-keyboard-response","48","101808","0.0-1.0-1.23","null","","","","","","Correct!"
"","807","canvas-keyboard-response","49","103117","0.0-1.0-0.24","j","false","10","true","response","true",""
"","null","html-keyboard-response","50","104620","0.0-1.0-1.24","null","","","","","","Correct!"
"","864","canvas-keyboard-response","51","105989","0.0-1.0-0.25","j","false","10","false","response","true",""
"","null","html-keyboard-response","52","107491","0.0-1.0-1.25","null","","","","","","Correct!"
"","613","canvas-keyboard-response","53","108609","0.0-1.0-0.26","f","true","20","false","response","true",""
"","null","html-keyboard-response","54","110112","0.0-1.0-1.26","null","","","","","","Correct!"
"","1519","canvas-keyboard-response","55","112133","0.0-1.0-0.27","j","false","30","true","response","true",""
"","null","html-keyboard-response","56","113635","0.0-1.0-1.27","null","","","","","","Correct!"
"","899","canvas-keyboard-response","57","115038","0.0-1.0-0.28","j","false","20","true","response","true",""
"","null","html-keyboard-response","58","116540","0.0-1.0-1.28","null","","","","","","Correct!"
"","1444","canvas-keyboard-response","59","118487","0.0-1.0-0.29","j","false","40","false","response","true",""
"","null","html-keyboard-response","60","119989","0.0-1.0-1.29","null","","","","","","Correct!"
"","647","canvas-keyboard-response","61","121141","0.0-1.0-0.30","j","false","10","false","response","true",""
"","null","html-keyboard-response","62","122643","0.0-1.0-1.30","null","","","","","","Correct!"
"","534","canvas-keyboard-response","63","123680","0.0-1.0-0.31","j","false","10","false","response","true",""
"","null","html-keyboard-response","64","125183","0.0-1.0-1.31","null","","","","","","Correct!"
"","622","canvas-keyboard-response","65","126308","0.0-1.0-0.32","f","true","10","false","response","true",""
"","null","html-keyboard-response","66","127810","0.0-1.0-1.32","null","","","","","","Correct!"
"","778","canvas-keyboard-response","67","129092","0.0-1.0-0.33","f","true","20","true","response","true",""
"","null","html-keyboard-response","68","130594","0.0-1.0-1.33","null","","","","","","Correct!"
"","749","canvas-keyboard-response","69","131847","0.0-1.0-0.34","j","false","20","true","response","true",""
"","null","html-keyboard-response","70","133349","0.0-1.0-1.34","null","","","","","","Correct!"
"","1001","canvas-keyboard-response","71","134854","0.0-1.0-0.35","f","false","10","true","response","false",""
"","null","html-keyboard-response","72","136355","0.0-1.0-1.35","null","","","","","","Wrong"
"","700","canvas-keyboard-response","73","137560","0.0-1.0-0.36","f","true","10","true","response","true",""
"","null","html-keyboard-response","74","139062","0.0-1.0-1.36","null","","","","","","Correct!"
"","631","canvas-keyboard-response","75","140198","0.0-1.0-0.37","f","true","20","false","response","true",""
"","null","html-keyboard-response","76","141700","0.0-1.0-1.37","null","","","","","","Correct!"
"","753","canvas-keyboard-response","77","142957","0.0-1.0-0.38","f","true","10","false","response","true",""
"","null","html-keyboard-response","78","144458","0.0-1.0-1.38","null","","","","","","Correct!"
"","803","canvas-keyboard-response","79","145765","0.0-1.0-0.39","f","true","10","true","response","true",""
"","null","html-keyboard-response","80","147267","0.0-1.0-1.39","null","","","","","","Correct!"
"","1117","canvas-keyboard-response","81","148889","0.0-1.0-0.40","j","false","40","true","response","true",""
"","null","html-keyboard-response","82","150391","0.0-1.0-1.40","null","","","","","","Correct!"
"","527","canvas-keyboard-response","83","151422","0.0-1.0-0.41","f","true","20","false","response","true",""
"","null","html-keyboard-response","84","152924","0.0-1.0-1.41","null","","","","","","Correct!"
"","1492","canvas-keyboard-response","85","154920","0.0-1.0-0.42","f","true","30","true","response","true",""
"","null","html-keyboard-response","86","156422","0.0-1.0-1.42","null","","","","","","Correct!"
"","710","canvas-keyboard-response","87","157635","0.0-1.0-0.43","j","false","10","true","response","true",""
"","null","html-keyboard-response","88","159137","0.0-1.0-1.43","null","","","","","","Correct!"
"","653","canvas-keyboard-response","89","160293","0.0-1.0-0.44","j","false","10","false","response","true",""
"","null","html-keyboard-response","90","161794","0.0-1.0-1.44","null","","","","","","Correct!"
"","988","canvas-keyboard-response","91","163286","0.0-1.0-0.45","f","true","10","true","response","true",""
"","null","html-keyboard-response","92","164789","0.0-1.0-1.45","null","","","","","","Correct!"
"","927","canvas-keyboard-response","93","166219","0.0-1.0-0.46","j","false","30","true","response","true",""
"","null","html-keyboard-response","94","167721","0.0-1.0-1.46","null","","","","","","Correct!"
"","893","canvas-keyboard-response","95","169119","0.0-1.0-0.47","f","true","10","true","response","true",""
"","null","html-keyboard-response","96","170621","0.0-1.0-1.47","null","","","","","","Correct!"
"","915","canvas-keyboard-response","97","172040","0.0-1.0-0.48","j","false","30","true","response","true",""
"","null","html-keyboard-response","98","173543","0.0-1.0-1.48","null","","","","","","Correct!"
"","771","canvas-keyboard-response","99","174819","0.0-1.0-0.49","f","true","30","false","response","true",""
"","null","html-keyboard-response","100","176321","0.0-1.0-1.49","null","","","","","","Correct!"
"","897","canvas-keyboard-response","101","177721","0.0-1.0-0.50","j","false","30","false","response","true",""
"","null","html-keyboard-response","102","179223","0.0-1.0-1.50","null","","","","","","Correct!"
"","926","canvas-keyboard-response","103","180652","0.0-1.0-0.51","j","false","30","true","response","true",""
"","null","html-keyboard-response","104","182154","0.0-1.0-1.51","null","","","","","","Correct!"
"","598","canvas-keyboard-response","105","183257","0.0-1.0-0.52","f","true","40","true","response","true",""
"","null","html-keyboard-response","106","184759","0.0-1.0-1.52","null","","","","","","Correct!"
"","722","canvas-keyboard-response","107","185984","0.0-1.0-0.53","j","false","10","true","response","true",""
"","null","html-keyboard-response","108","187486","0.0-1.0-1.53","null","","","","","","Correct!"
"","1405","canvas-keyboard-response","109","189396","0.0-1.0-0.54","j","false","20","false","response","true",""
"","null","html-keyboard-response","110","190897","0.0-1.0-1.54","null","","","","","","Correct!"
"","834","canvas-keyboard-response","111","192234","0.0-1.0-0.55","j","false","20","false","response","true",""
"","null","html-keyboard-response","112","193735","0.0-1.0-1.55","null","","","","","","Correct!"
"","807","canvas-keyboard-response","113","195046","0.0-1.0-0.56","j","false","20","true","response","true",""
"","null","html-keyboard-response","114","196548","0.0-1.0-1.56","null","","","","","","Correct!"
"","771","canvas-keyboard-response","115","197824","0.0-1.0-0.57","j","false","20","true","response","true",""
"","null","html-keyboard-response","116","199326","0.0-1.0-1.57","null","","","","","","Correct!"
"","1038","canvas-keyboard-response","117","200866","0.0-1.0-0.58","f","true","20","true","response","true",""
"","null","html-keyboard-response","118","202369","0.0-1.0-1.58","null","","","","","","Correct!"
"","1453","canvas-keyboard-response","119","204326","0.0-1.0-0.59","j","true","40","true","response","false",""
"","null","html-keyboard-response","120","205828","0.0-1.0-1.59","null","","","","","","Wrong"
"","527","canvas-keyboard-response","121","206858","0.0-1.0-0.60","f","true","10","false","response","true",""
"","null","html-keyboard-response","122","208361","0.0-1.0-1.60","null","","","","","","Correct!"
"","751","canvas-keyboard-response","123","209614","0.0-1.0-0.61","f","true","10","true","response","true",""
"","null","html-keyboard-response","124","211117","0.0-1.0-1.61","null","","","","","","Correct!"
"","1754","canvas-keyboard-response","125","213375","0.0-1.0-0.62","j","false","40","false","response","true",""
"","null","html-keyboard-response","126","214877","0.0-1.0-1.62","null","","","","","","Correct!"
"","988","canvas-keyboard-response","127","216370","0.0-1.0-0.63","f","true","40","false","response","true",""
"","null","html-keyboard-response","128","217872","0.0-1.0-1.63","null","","","","","","Correct!"
"","985","canvas-keyboard-response","129","219361","0.0-1.0-0.64","f","true","30","true","response","true",""
"","null","html-keyboard-response","130","220863","0.0-1.0-1.64","null","","","","","","Correct!"
"","709","canvas-keyboard-response","131","222074","0.0-1.0-0.65","f","true","20","false","response","true",""
"","null","html-keyboard-response","132","223576","0.0-1.0-1.65","null","","","","","","Correct!"
"","1102","canvas-keyboard-response","133","225184","0.0-1.0-0.66","j","false","30","true","response","true",""
"","null","html-keyboard-response","134","226685","0.0-1.0-1.66","null","","","","","","Correct!"
"","807","canvas-keyboard-response","135","227996","0.0-1.0-0.67","j","false","20","true","response","true",""
"","null","html-keyboard-response","136","229497","0.0-1.0-1.67","null","","","","","","Correct!"
"","934","canvas-keyboard-response","137","230936","0.0-1.0-0.68","f","true","40","true","response","true",""
"","null","html-keyboard-response","138","232438","0.0-1.0-1.68","null","","","","","","Correct!"
"","693","canvas-keyboard-response","139","233635","0.0-1.0-0.69","j","false","10","true","response","true",""
"","null","html-keyboard-response","140","235136","0.0-1.0-1.69","null","","","","","","Correct!"
"","669","canvas-keyboard-response","141","236310","0.0-1.0-0.70","f","true","40","false","response","true",""
"","null","html-keyboard-response","142","237812","0.0-1.0-1.70","null","","","","","","Correct!"
"","877","canvas-keyboard-response","143","239192","0.0-1.0-0.71","j","false","20","false","response","true",""
"","null","html-keyboard-response","144","240694","0.0-1.0-1.71","null","","","","","","Correct!"
"","727","canvas-keyboard-response","145","241925","0.0-1.0-0.72","f","true","20","false","response","true",""
"","null","html-keyboard-response","146","243427","0.0-1.0-1.72","null","","","","","","Correct!"
"","1225","canvas-keyboard-response","147","245157","0.0-1.0-0.73","f","true","40","true","response","true",""
"","null","html-keyboard-response","148","246658","0.0-1.0-1.73","null","","","","","","Correct!"
"","1067","canvas-keyboard-response","149","248230","0.0-1.0-0.74","f","true","40","true","response","true",""
"","null","html-keyboard-response","150","249732","0.0-1.0-1.74","null","","","","","","Correct!"
"","725","canvas-keyboard-response","151","250962","0.0-1.0-0.75","f","true","10","false","response","true",""
"","null","html-keyboard-response","152","252464","0.0-1.0-1.75","null","","","","","","Correct!"
"","728","canvas-keyboard-response","153","253699","0.0-1.0-0.76","f","true","10","true","response","true",""
"","null","html-keyboard-response","154","255202","0.0-1.0-1.76","null","","","","","","Correct!"
"","931","canvas-keyboard-response","155","256638","0.0-1.0-0.77","f","false","10","true","response","false",""
"","null","html-keyboard-response","156","258140","0.0-1.0-1.77","null","","","","","","Wrong"
"","861","canvas-keyboard-response","157","259505","0.0-1.0-0.78","j","false","10","false","response","true",""
"","null","html-keyboard-response","158","261008","0.0-1.0-1.78","null","","","","","","Correct!"
"","656","canvas-keyboard-response","159","262169","0.0-1.0-0.79","f","true","20","false","response","true",""
"","null","html-keyboard-response","160","263672","0.0-1.0-1.79","null","","","","","","Correct!"
"","1650","canvas-keyboard-response","161","265827","0.0-1.0-0.80","j","false","30","true","response","true",""
"","null","html-keyboard-response","162","267330","0.0-1.0-1.80","null","","","","","","Correct!"
"","726","canvas-keyboard-response","163","268560","0.0-1.0-0.81","j","false","10","false","response","true",""
"","null","html-keyboard-response","164","270061","0.0-1.0-1.81","null","","","","","","Correct!"
"","795","canvas-keyboard-response","165","271359","0.0-1.0-0.82","f","true","20","true","response","true",""
"","null","html-keyboard-response","166","272862","0.0-1.0-1.82","null","","","","","","Correct!"
"","727","canvas-keyboard-response","167","274093","0.0-1.0-0.83","j","false","10","true","response","true",""
"","null","html-keyboard-response","168","275596","0.0-1.0-1.83","null","","","","","","Correct!"
"","625","canvas-keyboard-response","169","276724","0.0-1.0-0.84","f","true","30","false","response","true",""
"","null","html-keyboard-response","170","278227","0.0-1.0-1.84","null","","","","","","Correct!"
"","730","canvas-keyboard-response","171","279461","0.0-1.0-0.85","f","true","30","true","response","true",""
"","null","html-keyboard-response","172","280962","0.0-1.0-1.85","null","","","","","","Correct!"
"","844","canvas-keyboard-response","173","282311","0.0-1.0-0.86","j","false","20","false","response","true",""
"","null","html-keyboard-response","174","283813","0.0-1.0-1.86","null","","","","","","Correct!"
"","895","canvas-keyboard-response","175","285213","0.0-1.0-0.87","j","false","40","true","response","true",""
"","null","html-keyboard-response","176","286715","0.0-1.0-1.87","null","","","","","","Correct!"
"","1070","canvas-keyboard-response","177","288289","0.0-1.0-0.88","j","false","20","false","response","true",""
"","null","html-keyboard-response","178","289791","0.0-1.0-1.88","null","","","","","","Correct!"
"","591","canvas-keyboard-response","179","290885","0.0-1.0-0.89","f","true","20","false","response","true",""
"","null","html-keyboard-response","180","292386","0.0-1.0-1.89","null","","","","","","Correct!"
"","652","canvas-keyboard-response","181","293543","0.0-1.0-0.90","f","true","40","false","response","true",""
"","null","html-keyboard-response","182","295045","0.0-1.0-1.90","null","","","","","","Correct!"
"","726","canvas-keyboard-response","183","296275","0.0-1.0-0.91","f","true","20","true","response","true",""
"","null","html-keyboard-response","184","297777","0.0-1.0-1.91","null","","","","","","Correct!"
"","629","canvas-keyboard-response","185","298911","0.0-1.0-0.92","f","true","20","true","response","true",""
"","null","html-keyboard-response","186","300413","0.0-1.0-1.92","null","","","","","","Correct!"
"","933","canvas-keyboard-response","187","301850","0.0-1.0-0.93","j","false","10","true","response","true",""
"","null","html-keyboard-response","188","303353","0.0-1.0-1.93","null","","","","","","Correct!"
"","1143","canvas-keyboard-response","189","304999","0.0-1.0-0.94","j","false","40","true","response","true",""
"","null","html-keyboard-response","190","306502","0.0-1.0-1.94","null","","","","","","Correct!"
"","523","canvas-keyboard-response","191","307529","0.0-1.0-0.95","f","true","10","false","response","true",""
"","null","html-keyboard-response","192","309030","0.0-1.0-1.95","null","","","","","","Correct!"
"","740","canvas-keyboard-response","193","310272","0.0-1.0-0.96","f","true","40","true","response","true",""
"","null","html-keyboard-response","194","311776","0.0-1.0-1.96","null","","","","","","Correct!"
"","742","canvas-keyboard-response","195","313026","0.0-1.0-0.97","f","true","20","false","response","true",""
"","null","html-keyboard-response","196","314529","0.0-1.0-1.97","null","","","","","","Correct!"
"","1096","canvas-keyboard-response","197","316131","0.0-1.0-0.98","f","true","30","true","response","true",""
"","null","html-keyboard-response","198","317634","0.0-1.0-1.98","null","","","","","","Correct!"
"","1244","canvas-keyboard-response","199","319383","0.0-1.0-0.99","j","false","30","false","response","true",""
"","null","html-keyboard-response","200","320886","0.0-1.0-1.99","null","","","","","","Correct!"
"","977","canvas-keyboard-response","201","322368","0.0-1.0-0.100","f","true","20","true","response","true",""
"","null","html-keyboard-response","202","323870","0.0-1.0-1.100","null","","","","","","Correct!"
"","917","canvas-keyboard-response","203","325293","0.0-1.0-0.101","j","false","10","false","response","true",""
"","null","html-keyboard-response","204","326795","0.0-1.0-1.101","null","","","","","","Correct!"
"","527","canvas-keyboard-response","205","327827","0.0-1.0-0.102","f","true","20","false","response","true",""
"","null","html-keyboard-response","206","329330","0.0-1.0-1.102","null","","","","","","Correct!"
"","614","canvas-keyboard-response","207","330449","0.0-1.0-0.103","f","true","40","false","response","true",""
"","null","html-keyboard-response","208","331951","0.0-1.0-1.103","null","","","","","","Correct!"
"","1057","canvas-keyboard-response","209","333513","0.0-1.0-0.104","j","false","20","true","response","true",""
"","null","html-keyboard-response","210","335015","0.0-1.0-1.104","null","","","","","","Correct!"
"","639","canvas-keyboard-response","211","336157","0.0-1.0-0.105","f","true","20","false","response","true",""
"","null","html-keyboard-response","212","337659","0.0-1.0-1.105","null","","","","","","Correct!"
"","1186","canvas-keyboard-response","213","339350","0.0-1.0-0.106","f","true","30","true","response","true",""
"","null","html-keyboard-response","214","340853","0.0-1.0-1.106","null","","","","","","Correct!"
"","771","canvas-keyboard-response","215","342128","0.0-1.0-0.107","j","false","10","true","response","true",""
"","null","html-keyboard-response","216","343630","0.0-1.0-1.107","null","","","","","","Correct!"
"","1546","canvas-keyboard-response","217","345679","0.0-1.0-0.108","j","false","40","false","response","true",""
"","null","html-keyboard-response","218","347181","0.0-1.0-1.108","null","","","","","","Correct!"
"","1291","canvas-keyboard-response","219","348977","0.0-1.0-0.109","j","false","40","false","response","true",""
"","null","html-keyboard-response","220","350479","0.0-1.0-1.109","null","","","","","","Correct!"
"","873","canvas-keyboard-response","221","351858","0.0-1.0-0.110","f","true","40","true","response","true",""
"","null","html-keyboard-response","222","353360","0.0-1.0-1.110","null","","","","","","Correct!"
"","845","canvas-keyboard-response","223","354709","0.0-1.0-0.111","j","false","20","false","response","true",""
"","null","html-keyboard-response","224","356211","0.0-1.0-1.111","null","","","","","","Correct!"
"","511","canvas-keyboard-response","225","357225","0.0-1.0-0.112","f","true","10","false","response","true",""
"","null","html-keyboard-response","226","358727","0.0-1.0-1.112","null","","","","","","Correct!"
"","996","canvas-keyboard-response","227","360225","0.0-1.0-0.113","j","false","20","false","response","true",""
"","null","html-keyboard-response","228","361726","0.0-1.0-1.113","null","","","","","","Correct!"
"","942","canvas-keyboard-response","229","363173","0.0-1.0-0.114","j","false","40","false","response","true",""
"","null","html-keyboard-response","230","364675","0.0-1.0-1.114","null","","","","","","Correct!"
"","568","canvas-keyboard-response","231","365746","0.0-1.0-0.115","f","true","20","false","response","true",""
"","null","html-keyboard-response","232","367249","0.0-1.0-1.115","null","","","","","","Correct!"
"","962","canvas-keyboard-response","233","368715","0.0-1.0-0.116","j","false","40","false","response","true",""
"","null","html-keyboard-response","234","370217","0.0-1.0-1.116","null","","","","","","Correct!"
"","700","canvas-keyboard-response","235","371420","0.0-1.0-0.117","f","true","10","false","response","true",""
"","null","html-keyboard-response","236","372923","0.0-1.0-1.117","null","","","","","","Correct!"
"","568","canvas-keyboard-response","237","373995","0.0-1.0-0.118","f","true","10","false","response","true",""
"","null","html-keyboard-response","238","375497","0.0-1.0-1.118","null","","","","","","Correct!"
"","671","canvas-keyboard-response","239","376671","0.0-1.0-0.119","f","true","20","true","response","true",""
"","null","html-keyboard-response","240","378173","0.0-1.0-1.119","null","","","","","","Correct!"
"","1081","canvas-keyboard-response","241","379757","0.0-1.0-0.120","j","false","40","false","response","true",""
"","null","html-keyboard-response","242","381260","0.0-1.0-1.120","null","","","","","","Correct!"
"","1367","canvas-keyboard-response","243","383132","0.0-1.0-0.121","f","true","30","true","response","true",""
"","null","html-keyboard-response","244","384634","0.0-1.0-1.121","null","","","","","","Correct!"
"","955","canvas-keyboard-response","245","386094","0.0-1.0-0.122","j","false","40","true","response","true",""
"","null","html-keyboard-response","246","387595","0.0-1.0-1.122","null","","","","","","Correct!"
"","712","canvas-keyboard-response","247","388812","0.0-1.0-0.123","f","true","20","true","response","true",""
"","null","html-keyboard-response","248","390313","0.0-1.0-1.123","null","","","","","","Correct!"
"","762","canvas-keyboard-response","249","391580","0.0-1.0-0.124","f","true","10","true","response","true",""
"","null","html-keyboard-response","250","393082","0.0-1.0-1.124","null","","","","","","Correct!"
"","643","canvas-keyboard-response","251","394229","0.0-1.0-0.125","f","true","30","false","response","true",""
"","null","html-keyboard-response","252","395731","0.0-1.0-1.125","null","","","","","","Correct!"
"","750","canvas-keyboard-response","253","396986","0.0-1.0-0.126","j","false","10","true","response","true",""
"","null","html-keyboard-response","254","398488","0.0-1.0-1.126","null","","","","","","Correct!"
"","1002","canvas-keyboard-response","255","399994","0.0-1.0-0.127","j","false","40","true","response","true",""
"","null","html-keyboard-response","256","401495","0.0-1.0-1.127","null","","","","","","Correct!"
"","837","canvas-keyboard-response","257","402837","0.0-1.0-0.128","j","false","30","false","response","true",""
"","null","html-keyboard-response","258","404338","0.0-1.0-1.128","null","","","","","","Correct!"
"","674","canvas-keyboard-response","259","405516","0.0-1.0-0.129","j","false","10","false","response","true",""
"","null","html-keyboard-response","260","407019","0.0-1.0-1.129","null","","","","","","Correct!"
"","913","canvas-keyboard-response","261","408435","0.0-1.0-0.130","f","true","20","true","response","true",""
"","null","html-keyboard-response","262","409938","0.0-1.0-1.130","null","","","","","","Correct!"
"","687","canvas-keyboard-response","263","411128","0.0-1.0-0.131","f","true","30","false","response","true",""
"","null","html-keyboard-response","264","412630","0.0-1.0-1.131","null","","","","","","Correct!"
"","585","canvas-keyboard-response","265","413719","0.0-1.0-0.132","f","true","40","false","response","true",""
"","null","html-keyboard-response","266","415220","0.0-1.0-1.132","null","","","","","","Correct!"
"","635","canvas-keyboard-response","267","416359","0.0-1.0-0.133","f","true","10","true","response","true",""
"","null","html-keyboard-response","268","417861","0.0-1.0-1.133","null","","","","","","Correct!"
"","960","canvas-keyboard-response","269","419325","0.0-1.0-0.134","f","true","10","true","response","true",""
"","null","html-keyboard-response","270","420826","0.0-1.0-1.134","null","","","","","","Correct!"
"","1072","canvas-keyboard-response","271","422403","0.0-1.0-0.135","j","false","20","true","response","true",""
"","null","html-keyboard-response","272","423905","0.0-1.0-1.135","null","","","","","","Correct!"
"","633","canvas-keyboard-response","273","425044","0.0-1.0-0.136","f","true","30","false","response","true",""
"","null","html-keyboard-response","274","426545","0.0-1.0-1.136","null","","","","","","Correct!"
"","614","canvas-keyboard-response","275","427663","0.0-1.0-0.137","j","false","10","false","response","true",""
"","null","html-keyboard-response","276","429165","0.0-1.0-1.137","null","","","","","","Correct!"
"","948","canvas-keyboard-response","277","430618","0.0-1.0-0.138","f","true","30","true","response","true",""
"","null","html-keyboard-response","278","432119","0.0-1.0-1.138","null","","","","","","Correct!"
"","553","canvas-keyboard-response","279","433178","0.0-1.0-0.139","f","true","40","false","response","true",""
"","null","html-keyboard-response","280","434680","0.0-1.0-1.139","null","","","","","","Correct!"
"","528","canvas-keyboard-response","281","435711","0.0-1.0-0.140","f","true","20","false","response","true",""
"","null","html-keyboard-response","282","437214","0.0-1.0-1.140","null","","","","","","Correct!"
"","641","canvas-keyboard-response","283","438359","0.0-1.0-0.141","j","false","20","false","response","true",""
"","null","html-keyboard-response","284","439861","0.0-1.0-1.141","null","","","","","","Correct!"
"","808","canvas-keyboard-response","285","441171","0.0-1.0-0.142","j","false","20","true","response","true",""
"","null","html-keyboard-response","286","442674","0.0-1.0-1.142","null","","","","","","Correct!"
"","622","canvas-keyboard-response","287","443799","0.0-1.0-0.143","j","false","10","false","response","true",""
"","null","html-keyboard-response","288","445302","0.0-1.0-1.143","null","","","","","","Correct!"
"","621","canvas-keyboard-response","289","446427","0.0-1.0-0.144","f","true","40","true","response","true",""
"","null","html-keyboard-response","290","447928","0.0-1.0-1.144","null","","","","","","Correct!"
"","1097","canvas-keyboard-response","291","449529","0.0-1.0-0.145","j","false","30","false","response","true",""
"","null","html-keyboard-response","292","451031","0.0-1.0-1.145","null","","","","","","Correct!"
"","617","canvas-keyboard-response","293","452153","0.0-1.0-0.146","j","false","20","false","response","true",""
"","null","html-keyboard-response","294","453656","0.0-1.0-1.146","null","","","","","","Correct!"
"","624","canvas-keyboard-response","295","454784","0.0-1.0-0.147","f","true","30","false","response","true",""
"","null","html-keyboard-response","296","456286","0.0-1.0-1.147","null","","","","","","Correct!"
"","542","canvas-keyboard-response","297","457332","0.0-1.0-0.148","f","true","30","false","response","true",""
"","null","html-keyboard-response","298","458834","0.0-1.0-1.148","null","","","","","","Correct!"
"","668","canvas-keyboard-response","299","460005","0.0-1.0-0.149","f","true","30","true","response","true",""
"","null","html-keyboard-response","300","461508","0.0-1.0-1.149","null","","","","","","Correct!"
"","507","canvas-keyboard-response","301","462518","0.0-1.0-0.150","f","true","20","false","response","true",""
"","null","html-keyboard-response","302","464020","0.0-1.0-1.150","null","","","","","","Correct!"
"","797","canvas-keyboard-response","303","465321","0.0-1.0-0.151","j","false","30","false","response","true",""
"","null","html-keyboard-response","304","466824","0.0-1.0-1.151","null","","","","","","Correct!"
"","658","canvas-keyboard-response","305","467985","0.0-1.0-0.152","f","true","40","true","response","true",""
"","null","html-keyboard-response","306","469487","0.0-1.0-1.152","null","","","","","","Correct!"
"","734","canvas-keyboard-response","307","470726","0.0-1.0-0.153","j","false","40","true","response","true",""
"","null","html-keyboard-response","308","472227","0.0-1.0-1.153","null","","","","","","Correct!"
"","587","canvas-keyboard-response","309","473318","0.0-1.0-0.154","j","false","10","false","response","true",""
"","null","html-keyboard-response","310","474820","0.0-1.0-1.154","null","","","","","","Correct!"
"","951","canvas-keyboard-response","311","476276","0.0-1.0-0.155","j","false","40","true","response","true",""
"","null","html-keyboard-response","312","477777","0.0-1.0-1.155","null","","","","","","Correct!"
"","582","canvas-keyboard-response","313","478864","0.0-1.0-0.156","f","true","30","false","response","true",""
"","null","html-keyboard-response","314","480367","0.0-1.0-1.156","null","","","","","","Correct!"
"","644","canvas-keyboard-response","315","481516","0.0-1.0-0.157","f","true","10","true","response","true",""
"","null","html-keyboard-response","316","483019","0.0-1.0-1.157","null","","","","","","Correct!"
"","645","canvas-keyboard-response","317","484170","0.0-1.0-0.158","f","true","20","true","response","true",""
"","null","html-keyboard-response","318","485673","0.0-1.0-1.158","null","","","","","","Correct!"
"","899","canvas-keyboard-response","319","487077","0.0-1.0-0.159","f","true","20","true","response","true",""
"","null","html-keyboard-response","320","488580","0.0-1.0-1.159","null","","","","","","Correct!"
"","954","canvas-keyboard-response","321","490038","0.0-1.0-0.160","j","false","10","true","response","true",""
"","null","html-keyboard-response","322","491540","0.0-1.0-1.160","null","","","","","","Correct!"
"","935","canvas-keyboard-response","323","492980","0.0-1.0-0.161","f","true","30","true","response","true",""
"","null","html-keyboard-response","324","494485","0.0-1.0-1.161","null","","","","","","Correct!"
"","831","canvas-keyboard-response","325","495818","0.0-1.0-0.162","f","true","20","false","response","true",""
"","null","html-keyboard-response","326","497322","0.0-1.0-1.162","null","","","","","","Correct!"
"","769","canvas-keyboard-response","327","498596","0.0-1.0-0.163","j","false","10","true","response","true",""
"","null","html-keyboard-response","328","500097","0.0-1.0-1.163","null","","","","","","Correct!"
"","684","canvas-keyboard-response","329","501286","0.0-1.0-0.164","j","false","20","false","response","true",""
"","null","html-keyboard-response","330","502789","0.0-1.0-1.164","null","","","","","","Correct!"
"","692","canvas-keyboard-response","331","503985","0.0-1.0-0.165","j","false","20","true","response","true",""
"","null","html-keyboard-response","332","505487","0.0-1.0-1.165","null","","","","","","Correct!"
"","865","canvas-keyboard-response","333","506858","0.0-1.0-0.166","j","false","40","true","response","true",""
"","null","html-keyboard-response","334","508360","0.0-1.0-1.166","null","","","","","","Correct!"
"","624","canvas-keyboard-response","335","509488","0.0-1.0-0.167","j","false","20","true","response","true",""
"","null","html-keyboard-response","336","510990","0.0-1.0-1.167","null","","","","","","Correct!"
"","702","canvas-keyboard-response","337","512196","0.0-1.0-0.168","j","false","30","false","response","true",""
"","null","html-keyboard-response","338","513697","0.0-1.0-1.168","null","","","","","","Correct!"
"","871","canvas-keyboard-response","339","515074","0.0-1.0-0.169","j","false","40","true","response","true",""
"","null","html-keyboard-response","340","516575","0.0-1.0-1.169","null","","","","","","Correct!"
"","571","canvas-keyboard-response","341","517648","0.0-1.0-0.170","f","true","10","false","response","true",""
"","null","html-keyboard-response","342","519150","0.0-1.0-1.170","null","","","","","","Correct!"
"","913","canvas-keyboard-response","343","520566","0.0-1.0-0.171","j","false","30","true","response","true",""
"","null","html-keyboard-response","344","522069","0.0-1.0-1.171","null","","","","","","Correct!"
"","850","canvas-keyboard-response","345","523422","0.0-1.0-0.172","j","false","30","true","response","true",""
"","null","html-keyboard-response","346","524925","0.0-1.0-1.172","null","","","","","","Correct!"
"","767","canvas-keyboard-response","347","526195","0.0-1.0-0.173","j","false","30","false","response","true",""
"","null","html-keyboard-response","348","527697","0.0-1.0-1.173","null","","","","","","Correct!"
"","630","canvas-keyboard-response","349","528830","0.0-1.0-0.174","j","false","10","false","response","true",""
"","null","html-keyboard-response","350","530333","0.0-1.0-1.174","null","","","","","","Correct!"
"","583","canvas-keyboard-response","351","531419","0.0-1.0-0.175","f","true","40","true","response","true",""
"","null","html-keyboard-response","352","532921","0.0-1.0-1.175","null","","","","","","Correct!"
"","622","canvas-keyboard-response","353","534046","0.0-1.0-0.176","f","true","30","true","response","true",""
"","null","html-keyboard-response","354","535548","0.0-1.0-1.176","null","","","","","","Correct!"
"","669","canvas-keyboard-response","355","536721","0.0-1.0-0.177","j","false","20","true","response","true",""
"","null","html-keyboard-response","356","538224","0.0-1.0-1.177","null","","","","","","Correct!"
"","562","canvas-keyboard-response","357","539293","0.0-1.0-0.178","f","true","40","false","response","true",""
"","null","html-keyboard-response","358","540797","0.0-1.0-1.178","null","","","","","","Correct!"
"","692","canvas-keyboard-response","359","541995","0.0-1.0-0.179","f","true","20","true","response","true",""
"","null","html-keyboard-response","360","543497","0.0-1.0-1.179","null","","","","","","Correct!"
"","778","canvas-keyboard-response","361","544781","0.0-1.0-0.180","j","true","40","true","response","false",""
"","null","html-keyboard-response","362","546284","0.0-1.0-1.180","null","","","","","","Wrong"
"","622","canvas-keyboard-response","363","547410","0.0-1.0-0.181","f","true","20","true","response","true",""
"","null","html-keyboard-response","364","548913","0.0-1.0-1.181","null","","","","","","Correct!"
"","761","canvas-keyboard-response","365","550179","0.0-1.0-0.182","f","true","20","false","response","true",""
"","null","html-keyboard-response","366","551681","0.0-1.0-1.182","null","","","","","","Correct!"
"","764","canvas-keyboard-response","367","552950","0.0-1.0-0.183","f","true","10","true","response","true",""
"","null","html-keyboard-response","368","554454","0.0-1.0-1.183","null","","","","","","Correct!"
"","934","canvas-keyboard-response","369","555891","0.0-1.0-0.184","j","false","10","true","response","true",""
"","null","html-keyboard-response","370","557393","0.0-1.0-1.184","null","","","","","","Correct!"
"","937","canvas-keyboard-response","371","558833","0.0-1.0-0.185","f","true","40","false","response","true",""
"","null","html-keyboard-response","372","560335","0.0-1.0-1.185","null","","","","","","Correct!"
"","1156","canvas-keyboard-response","373","561995","0.0-1.0-0.186","j","false","20","false","response","true",""
"","null","html-keyboard-response","374","563496","0.0-1.0-1.186","null","","","","","","Correct!"
"","561","canvas-keyboard-response","375","564561","0.0-1.0-0.187","j","false","20","false","response","true",""
"","null","html-keyboard-response","376","566063","0.0-1.0-1.187","null","","","","","","Correct!"
"","664","canvas-keyboard-response","377","567233","0.0-1.0-0.188","f","true","10","false","response","true",""
"","null","html-keyboard-response","378","568735","0.0-1.0-1.188","null","","","","","","Correct!"
"","1502","canvas-keyboard-response","379","570741","0.0-1.0-0.189","j","false","40","true","response","true",""
"","null","html-keyboard-response","380","572244","0.0-1.0-1.189","null","","","","","","Correct!"
"","990","canvas-keyboard-response","381","573737","0.0-1.0-0.190","j","false","40","true","response","true",""
"","null","html-keyboard-response","382","575239","0.0-1.0-1.190","null","","","","","","Correct!"
"","688","canvas-keyboard-response","383","576432","0.0-1.0-0.191","f","true","10","true","response","true",""
"","null","html-keyboard-response","384","577933","0.0-1.0-1.191","null","","","","","","Correct!"
"","945","canvas-keyboard-response","385","579383","0.0-1.0-0.192","j","true","30","true","response","false",""
"","null","html-keyboard-response","386","580886","0.0-1.0-1.192","null","","","","","","Wrong"
"","688","canvas-keyboard-response","387","582079","0.0-1.0-0.193","f","true","40","false","response","true",""
"","null","html-keyboard-response","388","583580","0.0-1.0-1.193","null","","","","","","Correct!"
"","1034","canvas-keyboard-response","389","585119","0.0-1.0-0.194","j","false","40","false","response","true",""
"","null","html-keyboard-response","390","586621","0.0-1.0-1.194","null","","","","","","Correct!"
"","532","canvas-keyboard-response","391","587659","0.0-1.0-0.195","f","true","40","false","response","true",""
"","null","html-keyboard-response","392","589160","0.0-1.0-1.195","null","","","","","","Correct!"
"","789","canvas-keyboard-response","393","590454","0.0-1.0-0.196","f","true","10","false","response","true",""
"","null","html-keyboard-response","394","591955","0.0-1.0-1.196","null","","","","","","Correct!"
"","997","canvas-keyboard-response","395","593457","0.0-1.0-0.197","j","false","30","false","response","true",""
"","null","html-keyboard-response","396","594958","0.0-1.0-1.197","null","","","","","","Correct!"
"","531","canvas-keyboard-response","397","595993","0.0-1.0-0.198","f","true","10","true","response","true",""
"","null","html-keyboard-response","398","597494","0.0-1.0-1.198","null","","","","","","Correct!"
"","747","canvas-keyboard-response","399","598744","0.0-1.0-0.199","j","false","10","true","response","true",""
"","null","html-keyboard-response","400","600247","0.0-1.0-1.199","null","","","","","","Correct!"
"","869","canvas-keyboard-response","401","601620","0.0-1.0-0.200","f","true","20","true","response","true",""
"","null","html-keyboard-response","402","603122","0.0-1.0-1.200","null","","","","","","Correct!"
"","911","canvas-keyboard-response","403","604538","0.0-1.0-0.201","j","false","30","true","response","true",""
"","null","html-keyboard-response","404","606040","0.0-1.0-1.201","null","","","","","","Correct!"
"","669","canvas-keyboard-response","405","607212","0.0-1.0-0.202","j","false","20","false","response","true",""
"","null","html-keyboard-response","406","608714","0.0-1.0-1.202","null","","","","","","Correct!"
"","528","canvas-keyboard-response","407","609746","0.0-1.0-0.203","f","true","40","false","response","true",""
"","null","html-keyboard-response","408","611248","0.0-1.0-1.203","null","","","","","","Correct!"
"","942","canvas-keyboard-response","409","612693","0.0-1.0-0.204","j","false","30","false","response","true",""
"","null","html-keyboard-response","410","614194","0.0-1.0-1.204","null","","","","","","Correct!"
"","525","canvas-keyboard-response","411","615224","0.0-1.0-0.205","f","true","30","false","response","true",""
"","null","html-keyboard-response","412","616727","0.0-1.0-1.205","null","","","","","","Correct!"
"","1523","canvas-keyboard-response","413","618753","0.0-1.0-0.206","f","true","30","true","response","true",""
"","null","html-keyboard-response","414","620255","0.0-1.0-1.206","null","","","","","","Correct!"
"","1259","canvas-keyboard-response","415","622017","0.0-1.0-0.207","j","false","30","false","response","true",""
"","null","html-keyboard-response","416","623520","0.0-1.0-1.207","null","","","","","","Correct!"
"","720","canvas-keyboard-response","417","624743","0.0-1.0-0.208","j","false","10","false","response","true",""
"","null","html-keyboard-response","418","626245","0.0-1.0-1.208","null","","","","","","Correct!"
"","706","canvas-keyboard-response","419","627454","0.0-1.0-0.209","f","true","40","true","response","true",""
"","null","html-keyboard-response","420","628956","0.0-1.0-1.209","null","","","","","","Correct!"
"","801","canvas-keyboard-response","421","630260","0.0-1.0-0.210","f","true","10","false","response","true",""
"","null","html-keyboard-response","422","631761","0.0-1.0-1.210","null","","","","","","Correct!"
"","682","canvas-keyboard-response","423","632948","0.0-1.0-0.211","f","true","10","true","response","true",""
"","null","html-keyboard-response","424","634450","0.0-1.0-1.211","null","","","","","","Correct!"
"","640","canvas-keyboard-response","425","635593","0.0-1.0-0.212","f","true","10","false","response","true",""
"","null","html-keyboard-response","426","637095","0.0-1.0-1.212","null","","","","","","Correct!"
"","680","canvas-keyboard-response","427","638279","0.0-1.0-0.213","f","true","30","true","response","true",""
"","null","html-keyboard-response","428","639782","0.0-1.0-1.213","null","","","","","","Correct!"
"","656","canvas-keyboard-response","429","640941","0.0-1.0-0.214","f","true","40","false","response","true",""
"","null","html-keyboard-response","430","642443","0.0-1.0-1.214","null","","","","","","Correct!"
"","1320","canvas-keyboard-response","431","644267","0.0-1.0-0.215","j","false","40","false","response","true",""
"","null","html-keyboard-response","432","645768","0.0-1.0-1.215","null","","","","","","Correct!"
"","1034","canvas-keyboard-response","433","647307","0.0-1.0-0.216","f","true","10","false","response","true",""
"","null","html-keyboard-response","434","648808","0.0-1.0-1.216","null","","","","","","Correct!"
"","1014","canvas-keyboard-response","435","650326","0.0-1.0-0.217","j","false","30","false","response","true",""
"","null","html-keyboard-response","436","651828","0.0-1.0-1.217","null","","","","","","Correct!"
"","895","canvas-keyboard-response","437","653227","0.0-1.0-0.218","f","true","20","true","response","true",""
"","null","html-keyboard-response","438","654729","0.0-1.0-1.218","null","","","","","","Correct!"
"","830","canvas-keyboard-response","439","656063","0.0-1.0-0.219","f","true","30","true","response","true",""
"","null","html-keyboard-response","440","657564","0.0-1.0-1.219","null","","","","","","Correct!"
"","1284","canvas-keyboard-response","441","659352","0.0-1.0-0.220","j","false","30","true","response","true",""
"","null","html-keyboard-response","442","660854","0.0-1.0-1.220","null","","","","","","Correct!"
"","1229","canvas-keyboard-response","443","662587","0.0-1.0-0.221","j","false","30","true","response","true",""
"","null","html-keyboard-response","444","664089","0.0-1.0-1.221","null","","","","","","Correct!"
"","1130","canvas-keyboard-response","445","665724","0.0-1.0-0.222","j","false","20","true","response","true",""
"","null","html-keyboard-response","446","667226","0.0-1.0-1.222","null","","","","","","Correct!"
"","834","canvas-keyboard-response","447","668563","0.0-1.0-0.223","j","false","20","true","response","true",""
"","null","html-keyboard-response","448","670066","0.0-1.0-1.223","null","","","","","","Correct!"
"","1039","canvas-keyboard-response","449","671607","0.0-1.0-0.224","j","false","20","false","response","true",""
"","null","html-keyboard-response","450","673109","0.0-1.0-1.224","null","","","","","","Correct!"
"","1101","canvas-keyboard-response","451","674713","0.0-1.0-0.225","j","false","30","false","response","true",""
"","null","html-keyboard-response","452","676216","0.0-1.0-1.225","null","","","","","","Correct!"
"","1082","canvas-keyboard-response","453","677801","0.0-1.0-0.226","j","false","40","true","response","true",""
"","null","html-keyboard-response","454","679303","0.0-1.0-1.226","null","","","","","","Correct!"
"","895","canvas-keyboard-response","455","680702","0.0-1.0-0.227","j","false","40","true","response","true",""
"","null","html-keyboard-response","456","682205","0.0-1.0-1.227","null","","","","","","Correct!"
"","628","canvas-keyboard-response","457","683336","0.0-1.0-0.228","f","true","20","true","response","true",""
"","null","html-keyboard-response","458","684838","0.0-1.0-1.228","null","","","","","","Correct!"
"","989","canvas-keyboard-response","459","686330","0.0-1.0-0.229","j","false","30","false","response","true",""
"","null","html-keyboard-response","460","687831","0.0-1.0-1.229","null","","","","","","Correct!"
"","1235","canvas-keyboard-response","461","689571","0.0-1.0-0.230","j","false","30","true","response","true",""
"","null","html-keyboard-response","462","691073","0.0-1.0-1.230","null","","","","","","Correct!"
"","1328","canvas-keyboard-response","463","692905","0.0-1.0-0.231","j","false","30","false","response","true",""
"","null","html-keyboard-response","464","694406","0.0-1.0-1.231","null","","","","","","Correct!"
"","717","canvas-keyboard-response","465","695628","0.0-1.0-0.232","j","false","10","true","response","true",""
"","null","html-keyboard-response","466","697130","0.0-1.0-1.232","null","","","","","","Correct!"
"","974","canvas-keyboard-response","467","698609","0.0-1.0-0.233","j","false","40","false","response","true",""
"","null","html-keyboard-response","468","700111","0.0-1.0-1.233","null","","","","","","Correct!"
"","1051","canvas-keyboard-response","469","701666","0.0-1.0-0.234","j","false","30","false","response","true",""
"","null","html-keyboard-response","470","703168","0.0-1.0-1.234","null","","","","","","Correct!"
"","609","canvas-keyboard-response","471","704281","0.0-1.0-0.235","f","true","20","false","response","true",""
"","null","html-keyboard-response","472","705783","0.0-1.0-1.235","null","","","","","","Correct!"
"","606","canvas-keyboard-response","473","706894","0.0-1.0-0.236","f","true","40","true","response","true",""
"","null","html-keyboard-response","474","708396","0.0-1.0-1.236","null","","","","","","Correct!"
"","1149","canvas-keyboard-response","475","710050","0.0-1.0-0.237","j","false","20","false","response","true",""
"","null","html-keyboard-response","476","711553","0.0-1.0-1.237","null","","","","","","Correct!"
"","852","canvas-keyboard-response","477","712912","0.0-1.0-0.238","j","false","40","false","response","true",""
"","null","html-keyboard-response","478","714416","0.0-1.0-1.238","null","","","","","","Correct!"
"","547","canvas-keyboard-response","479","715467","0.0-1.0-0.239","f","true","10","false","response","true",""
"","null","html-keyboard-response","480","716970","0.0-1.0-1.239","null","","","","","","Correct!"
"","628","canvas-keyboard-response","481","718103","0.0-1.0-0.240","f","false","20","true","response","false",""
"","null","html-keyboard-response","482","719605","0.0-1.0-1.240","null","","","","","","Wrong"
"","508","canvas-keyboard-response","483","720617","0.0-1.0-0.241","f","true","40","false","response","true",""
"","null","html-keyboard-response","484","722119","0.0-1.0-1.241","null","","","","","","Correct!"
"","752","canvas-keyboard-response","485","723376","0.0-1.0-0.242","j","false","20","true","response","true",""
"","null","html-keyboard-response","486","724881","0.0-1.0-1.242","null","","","","","","Correct!"
"","492","canvas-keyboard-response","487","725875","0.0-1.0-0.243","f","true","10","false","response","true",""
"","null","html-keyboard-response","488","727379","0.0-1.0-1.243","null","","","","","","Correct!"
"","1179","canvas-keyboard-response","489","729062","0.0-1.0-0.244","j","false","30","true","response","true",""
"","null","html-keyboard-response","490","730564","0.0-1.0-1.244","null","","","","","","Correct!"
"","580","canvas-keyboard-response","491","731649","0.0-1.0-0.245","f","true","30","false","response","true",""
"","null","html-keyboard-response","492","733150","0.0-1.0-1.245","null","","","","","","Correct!"
"","2022","canvas-keyboard-response","493","735676","0.0-1.0-0.246","j","false","20","true","response","true",""
"","null","html-keyboard-response","494","737178","0.0-1.0-1.246","null","","","","","","Correct!<br><br><b>Work faster!</b>"
"","1324","canvas-keyboard-response","495","739008","0.0-1.0-0.247","j","false","30","false","response","true",""
"","null","html-keyboard-response","496","740510","0.0-1.0-1.247","null","","","","","","Correct!"
"","664","canvas-keyboard-response","497","741679","0.0-1.0-0.248","f","true","20","false","response","true",""
"","null","html-keyboard-response","498","743180","0.0-1.0-1.248","null","","","","","","Correct!"
"","689","canvas-keyboard-response","499","744374","0.0-1.0-0.249","f","true","30","false","response","true",""
"","null","html-keyboard-response","500","745876","0.0-1.0-1.249","null","","","","","","Correct!"
"","598","canvas-keyboard-response","501","746978","0.0-1.0-0.250","j","false","10","false","response","true",""
"","null","html-keyboard-response","502","748480","0.0-1.0-1.250","null","","","","","","Correct!"
"","774","canvas-keyboard-response","503","749757","0.0-1.0-0.251","j","false","10","true","response","true",""
"","null","html-keyboard-response","504","751259","0.0-1.0-1.251","null","","","","","","Correct!"
"","696","canvas-keyboard-response","505","752458","0.0-1.0-0.252","f","true","10","true","response","true",""
"","null","html-keyboard-response","506","753960","0.0-1.0-1.252","null","","","","","","Correct!"
"","770","canvas-keyboard-response","507","755233","0.0-1.0-0.253","f","false","10","false","response","false",""
"","null","html-keyboard-response","508","756735","0.0-1.0-1.253","null","","","","","","Wrong"
"","756","canvas-keyboard-response","509","757995","0.0-1.0-0.254","f","true","10","false","response","true",""
"","null","html-keyboard-response","510","759497","0.0-1.0-1.254","null","","","","","","Correct!"
"","1042","canvas-keyboard-response","511","761043","0.0-1.0-0.255","j","false","40","true","response","true",""
"","null","html-keyboard-response","512","762545","0.0-1.0-1.255","null","","","","","","Correct!"
"","866","canvas-keyboard-response","513","763916","0.0-1.0-0.256","j","false","30","true","response","true",""
"","null","html-keyboard-response","514","765419","0.0-1.0-1.256","null","","","","","","Correct!"
"","772","canvas-keyboard-response","515","766694","0.0-1.0-0.257","j","false","40","false","response","true",""
"","null","html-keyboard-response","516","768196","0.0-1.0-1.257","null","","","","","","Correct!"
"","805","canvas-keyboard-response","517","769505","0.0-1.0-0.258","j","false","20","true","response","true",""
"","null","html-keyboard-response","518","771007","0.0-1.0-1.258","null","","","","","","Correct!"
"","817","canvas-keyboard-response","519","772330","0.0-1.0-0.259","f","true","10","true","response","true",""
"","null","html-keyboard-response","520","773834","0.0-1.0-1.259","null","","","","","","Correct!"
"","768","canvas-keyboard-response","521","775106","0.0-1.0-0.260","j","false","40","false","response","true",""
"","null","html-keyboard-response","522","776608","0.0-1.0-1.260","null","","","","","","Correct!"
"","986","canvas-keyboard-response","523","778099","0.0-1.0-0.261","j","false","40","false","response","true",""
"","null","html-keyboard-response","524","779602","0.0-1.0-1.261","null","","","","","","Correct!"
"","788","canvas-keyboard-response","525","780893","0.0-1.0-0.262","j","false","20","true","response","true",""
"","null","html-keyboard-response","526","782395","0.0-1.0-1.262","null","","","","","","Correct!"
"","644","canvas-keyboard-response","527","783544","0.0-1.0-0.263","f","true","40","false","response","true",""
"","null","html-keyboard-response","528","785047","0.0-1.0-1.263","null","","","","","","Correct!"
"","791","canvas-keyboard-response","529","786342","0.0-1.0-0.264","f","true","30","true","response","true",""
"","null","html-keyboard-response","530","787845","0.0-1.0-1.264","null","","","","","","Correct!"
"","792","canvas-keyboard-response","531","789141","0.0-1.0-0.265","j","false","30","true","response","true",""
"","null","html-keyboard-response","532","790642","0.0-1.0-1.265","null","","","","","","Correct!"
"","583","canvas-keyboard-response","533","791729","0.0-1.0-0.266","f","true","30","false","response","true",""
"","null","html-keyboard-response","534","793231","0.0-1.0-1.266","null","","","","","","Correct!"
"","756","canvas-keyboard-response","535","794491","0.0-1.0-0.267","f","true","10","true","response","true",""
"","null","html-keyboard-response","536","795993","0.0-1.0-1.267","null","","","","","","Correct!"
"","764","canvas-keyboard-response","537","797262","0.0-1.0-0.268","j","false","40","false","response","true",""
"","null","html-keyboard-response","538","798764","0.0-1.0-1.268","null","","","","","","Correct!"
"","526","canvas-keyboard-response","539","799795","0.0-1.0-0.269","f","true","40","true","response","true",""
"","null","html-keyboard-response","540","801297","0.0-1.0-1.269","null","","","","","","Correct!"
"","1095","canvas-keyboard-response","541","802895","0.0-1.0-0.270","f","true","40","true","response","true",""
"","null","html-keyboard-response","542","804397","0.0-1.0-1.270","null","","","","","","Correct!"
"","659","canvas-keyboard-response","543","805561","0.0-1.0-0.271","f","true","20","true","response","true",""
"","null","html-keyboard-response","544","807063","0.0-1.0-1.271","null","","","","","","Correct!"
"","876","canvas-keyboard-response","545","808443","0.0-1.0-0.272","j","false","30","false","response","true",""
"","null","html-keyboard-response","546","809945","0.0-1.0-1.272","null","","","","","","Correct!"
"","694","canvas-keyboard-response","547","811142","0.0-1.0-0.273","j","false","10","false","response","true",""
"","null","html-keyboard-response","548","812644","0.0-1.0-1.273","null","","","","","","Correct!"
"","705","canvas-keyboard-response","549","813853","0.0-1.0-0.274","f","true","40","true","response","true",""
"","null","html-keyboard-response","550","815354","0.0-1.0-1.274","null","","","","","","Correct!"
"","748","canvas-keyboard-response","551","816606","0.0-1.0-0.275","j","false","10","true","response","true",""
"","null","html-keyboard-response","552","818108","0.0-1.0-1.275","null","","","","","","Correct!"
"","676","canvas-keyboard-response","553","819288","0.0-1.0-0.276","f","true","40","false","response","true",""
"","null","html-keyboard-response","554","820790","0.0-1.0-1.276","null","","","","","","Correct!"
"","502","canvas-keyboard-response","555","821797","0.0-1.0-0.277","f","true","30","false","response","true",""
"","null","html-keyboard-response","556","823298","0.0-1.0-1.277","null","","","","","","Correct!"
"","697","canvas-keyboard-response","557","824499","0.0-1.0-0.278","j","false","30","false","response","true",""
"","null","html-keyboard-response","558","826001","0.0-1.0-1.278","null","","","","","","Correct!"
"","1165","canvas-keyboard-response","559","827670","0.0-1.0-0.279","j","false","40","true","response","true",""
"","null","html-keyboard-response","560","829172","0.0-1.0-1.279","null","","","","","","Correct!"
"","1067","canvas-keyboard-response","561","830743","0.0-1.0-0.280","j","false","40","false","response","true",""
"","null","html-keyboard-response","562","832243","0.0-1.0-1.280","null","","","","","","Correct!"
"","1245","canvas-keyboard-response","563","833992","0.0-1.0-0.281","j","false","20","true","response","true",""
"","null","html-keyboard-response","564","835494","0.0-1.0-1.281","null","","","","","","Correct!"
"","660","canvas-keyboard-response","565","836657","0.0-1.0-0.282","j","false","40","false","response","true",""
"","null","html-keyboard-response","566","838159","0.0-1.0-1.282","null","","","","","","Correct!"
"","641","canvas-keyboard-response","567","839305","0.0-1.0-0.283","j","false","10","true","response","true",""
"","null","html-keyboard-response","568","840807","0.0-1.0-1.283","null","","","","","","Correct!"
"","599","canvas-keyboard-response","569","841911","0.0-1.0-0.284","f","true","30","true","response","true",""
"","null","html-keyboard-response","570","843413","0.0-1.0-1.284","null","","","","","","Correct!"
"","690","canvas-keyboard-response","571","844606","0.0-1.0-0.285","j","true","20","true","response","false",""
"","null","html-keyboard-response","572","846109","0.0-1.0-1.285","null","","","","","","Wrong"
"","558","canvas-keyboard-response","573","847169","0.0-1.0-0.286","j","false","10","false","response","true",""
"","null","html-keyboard-response","574","848671","0.0-1.0-1.286","null","","","","","","Correct!"
"","479","canvas-keyboard-response","575","849654","0.0-1.0-0.287","f","true","40","false","response","true",""
"","null","html-keyboard-response","576","851156","0.0-1.0-1.287","null","","","","","","Correct!"
"","568","canvas-keyboard-response","577","852227","0.0-1.0-0.288","f","true","20","false","response","true",""
"","null","html-keyboard-response","578","853730","0.0-1.0-1.288","null","","","","","","Correct!"
"","1012","canvas-keyboard-response","579","855246","0.0-1.0-0.289","j","false","20","false","response","true",""
"","null","html-keyboard-response","580","856748","0.0-1.0-1.289","null","","","","","","Correct!"
"","875","canvas-keyboard-response","581","858127","0.0-1.0-0.290","j","false","20","false","response","true",""
"","null","html-keyboard-response","582","859629","0.0-1.0-1.290","null","","","","","","Correct!"
"","688","canvas-keyboard-response","583","860821","0.0-1.0-0.291","j","false","20","false","response","true",""
"","null","html-keyboard-response","584","862322","0.0-1.0-1.291","null","","","","","","Correct!"
"","1661","canvas-keyboard-response","585","864487","0.0-1.0-0.292","j","false","30","true","response","true",""
"","null","html-keyboard-response","586","865989","0.0-1.0-1.292","null","","","","","","Correct!"
"","638","canvas-keyboard-response","587","867129","0.0-1.0-0.293","f","true","40","true","response","true",""
"","null","html-keyboard-response","588","868632","0.0-1.0-1.293","null","","","","","","Correct!"
"","1054","canvas-keyboard-response","589","870190","0.0-1.0-0.294","j","false","30","true","response","true",""
"","null","html-keyboard-response","590","871692","0.0-1.0-1.294","null","","","","","","Correct!"
"","698","canvas-keyboard-response","591","872894","0.0-1.0-0.295","j","false","30","true","response","true",""
"","null","html-keyboard-response","592","874397","0.0-1.0-1.295","null","","","","","","Correct!"
"","641","canvas-keyboard-response","593","875543","0.0-1.0-0.296","j","false","40","false","response","true",""
"","null","html-keyboard-response","594","877045","0.0-1.0-1.296","null","","","","","","Correct!"
"","668","canvas-keyboard-response","595","878218","0.0-1.0-0.297","j","false","40","false","response","true",""
"","null","html-keyboard-response","596","879719","0.0-1.0-1.297","null","","","","","","Correct!"
"","614","canvas-keyboard-response","597","880836","0.0-1.0-0.298","j","false","20","false","response","true",""
"","null","html-keyboard-response","598","882338","0.0-1.0-1.298","null","","","","","","Correct!"
"","622","canvas-keyboard-response","599","883464","0.0-1.0-0.299","j","false","10","false","response","true",""
"","null","html-keyboard-response","600","884965","0.0-1.0-1.299","null","","","","","","Correct!"
"","774","canvas-keyboard-response","601","886243","0.0-1.0-0.300","j","false","10","true","response","true",""
"","null","html-keyboard-response","602","887746","0.0-1.0-1.300","null","","","","","","Correct!"
"","602","canvas-keyboard-response","603","888851","0.0-1.0-0.301","f","true","30","false","response","true",""
"","null","html-keyboard-response","604","890354","0.0-1.0-1.301","null","","","","","","Correct!"
"","678","canvas-keyboard-response","605","891534","0.0-1.0-0.302","j","false","30","true","response","true",""
"","null","html-keyboard-response","606","893037","0.0-1.0-1.302","null","","","","","","Correct!"
"","865","canvas-keyboard-response","607","894406","0.0-1.0-0.303","f","true","40","true","response","true",""
"","null","html-keyboard-response","608","895907","0.0-1.0-1.303","null","","","","","","Correct!"
"","687","canvas-keyboard-response","609","897098","0.0-1.0-0.304","f","true","30","false","response","true",""
"","null","html-keyboard-response","610","898600","0.0-1.0-1.304","null","","","","","","Correct!"
"","638","canvas-keyboard-response","611","899743","0.0-1.0-0.305","f","true","40","false","response","true",""
"","null","html-keyboard-response","612","901245","0.0-1.0-1.305","null","","","","","","Correct!"
"","601","canvas-keyboard-response","613","902349","0.0-1.0-0.306","f","true","40","true","response","true",""
"","null","html-keyboard-response","614","903851","0.0-1.0-1.306","null","","","","","","Correct!"
"","588","canvas-keyboard-response","615","904943","0.0-1.0-0.307","f","true","20","false","response","true",""
"","null","html-keyboard-response","616","906445","0.0-1.0-1.307","null","","","","","","Correct!"
"","629","canvas-keyboard-response","617","907576","0.0-1.0-0.308","f","true","40","true","response","true",""
"","null","html-keyboard-response","618","909078","0.0-1.0-1.308","null","","","","","","Correct!"
"","585","canvas-keyboard-response","619","910168","0.0-1.0-0.309","f","true","30","false","response","true",""
"","null","html-keyboard-response","620","911670","0.0-1.0-1.309","null","","","","","","Correct!"
"","533","canvas-keyboard-response","621","912707","0.0-1.0-0.310","f","true","40","false","response","true",""
"","null","html-keyboard-response","622","914209","0.0-1.0-1.310","null","","","","","","Correct!"
"","774","canvas-keyboard-response","623","915487","0.0-1.0-0.311","f","true","10","false","response","true",""
"","null","html-keyboard-response","624","916989","0.0-1.0-1.311","null","","","","","","Correct!"
"","558","canvas-keyboard-response","625","918050","0.0-1.0-0.312","f","true","30","true","response","true",""
"","null","html-keyboard-response","626","919552","0.0-1.0-1.312","null","","","","","","Correct!"
"","439","canvas-keyboard-response","627","920494","0.0-1.0-0.313","f","true","30","false","response","true",""
"","null","html-keyboard-response","628","921996","0.0-1.0-1.313","null","","","","","","Correct!"
"","711","canvas-keyboard-response","629","923210","0.0-1.0-0.314","j","false","20","true","response","true",""
"","null","html-keyboard-response","630","924713","0.0-1.0-1.314","null","","","","","","Correct!"
"","980","canvas-keyboard-response","631","926196","0.0-1.0-0.315","j","false","30","true","response","true",""
"","null","html-keyboard-response","632","927699","0.0-1.0-1.315","null","","","","","","Correct!"
"","663","canvas-keyboard-response","633","928866","0.0-1.0-0.316","f","true","20","false","response","true",""
"","null","html-keyboard-response","634","930367","0.0-1.0-1.316","null","","","","","","Correct!"
"","747","canvas-keyboard-response","635","931619","0.0-1.0-0.317","j","false","40","false","response","true",""
"","null","html-keyboard-response","636","933120","0.0-1.0-1.317","null","","","","","","Correct!"
"","1087","canvas-keyboard-response","637","934713","0.0-1.0-0.318","j","false","40","true","response","true",""
"","null","html-keyboard-response","638","936216","0.0-1.0-1.318","null","","","","","","Correct!"
"","571","canvas-keyboard-response","639","937293","0.0-1.0-0.319","j","false","10","false","response","true",""
"","null","html-keyboard-response","640","938797","0.0-1.0-1.319","null","","","","","","Correct!"
"","35057","html-button-response","641","974369","0.0-2.0","0","","","","","","<p><b>Results</b></p>
          <p>In the table, you can see mean response times for different search conditions:</p>
          <table><tr><th>Search type</th><th>Set size</th><th>Mean RT present</th><th>Mean RT absent</th></tr><tr><td>Feature</td><td>10</td><td>692.15</td><td>699.65</td></tr><tr><td>Feature</td><td>20</td><td>632.45</td><td>884.3</td></tr><tr><td>Feature</td><td>30</td><td>663.4</td><td>1013.55</td></tr><tr><td>Feature</td><td>40</td><td>675.7</td><td>1013.65</td></tr><tr><td>Conjunction</td><td>10</td><td>773.4</td><td>793.25</td></tr><tr><td>Conjunction</td><td>20</td><td>802.15</td><td>893.5</td></tr><tr><td>Conjunction</td><td>30</td><td>941.6</td><td>1068.45</td></tr><tr><td>Conjunction</td><td>40</td><td>795.05</td><td>1029.6</td></tr></table>
          <p>Press any key to <b>save</b> the data and complete the experiment. Thank you!</p>"
