"view_history","rt","trial_type","trial_index","time_elapsed","internal_node_id","response","present","setSize","conjuction","task","correct","stimulus"
"[{""page_index"":0,""viewing_time"":42463},{""page_index"":1,""viewing_time"":4998}]","47461","instructions","0","47460","0.0-0.0","","","","","","",""
"","4872","canvas-keyboard-response","1","52833","0.0-1.0-0.0","j","false","30","false","response","true",""
"","null","html-keyboard-response","2","54335","0.0-1.0-1.0","null","","","","","","Correct!<br><br><b>Work faster!</b>"
"","1260","canvas-keyboard-response","3","56097","0.0-1.0-0.1","j","false","20","true","response","true",""
"","null","html-keyboard-response","4","57598","0.0-1.0-1.1","null","","","","","","Correct!"
"","734","canvas-keyboard-response","5","58833","0.0-1.0-0.2","f","true","40","false","response","true",""
"","null","html-keyboard-response","6","60335","0.0-1.0-1.2","null","","","","","","Correct!"
"","2710","canvas-keyboard-response","7","63546","0.0-1.0-0.3","j","false","30","true","response","true",""
"","null","html-keyboard-response","8","65048","0.0-1.0-1.3","null","","","","","","Correct!<br><br><b>Work faster!</b>"
"","845","canvas-keyboard-response","9","66394","0.0-1.0-0.4","f","true","10","true","response","true",""
"","null","html-keyboard-response","10","67897","0.0-1.0-1.4","null","","","","","","Correct!"
"","947","canvas-keyboard-response","11","69346","0.0-1.0-0.5","j","false","10","false","response","true",""
"","null","html-keyboard-response","12","70849","0.0-1.0-1.5","null","","","","","","Correct!"
"","1884","canvas-keyboard-response","13","73235","0.0-1.0-0.6","f","true","40","true","response","true",""
"","null","html-keyboard-response","14","74737","0.0-1.0-1.6","null","","","","","","Correct!"
"","1877","canvas-keyboard-response","15","77115","0.0-1.0-0.7","j","false","30","true","response","true",""
"","null","html-keyboard-response","16","78617","0.0-1.0-1.7","null","","","","","","Correct!"
"","877","canvas-keyboard-response","17","79995","0.0-1.0-0.8","f","true","10","false","response","true",""
"","null","html-keyboard-response","18","81497","0.0-1.0-1.8","null","","","","","","Correct!"
"","797","canvas-keyboard-response","19","82795","0.0-1.0-0.9","j","false","10","true","response","true",""
"","null","html-keyboard-response","20","84297","0.0-1.0-1.9","null","","","","","","Correct!"
"","2230","canvas-keyboard-response","21","87028","0.0-1.0-0.10","j","false","20","false","response","true",""
"","null","html-keyboard-response","22","88530","0.0-1.0-1.10","null","","","","","","Correct!<br><br><b>Work faster!</b>"
"","1301","canvas-keyboard-response","23","90332","0.0-1.0-0.11","j","false","40","false","response","true",""
"","null","html-keyboard-response","24","91834","0.0-1.0-1.11","null","","","","","","Correct!"
"","1365","canvas-keyboard-response","25","93700","0.0-1.0-0.12","j","false","30","false","response","true",""
"","null","html-keyboard-response","26","95202","0.0-1.0-1.12","null","","","","","","Correct!"
"","1676","canvas-keyboard-response","27","97380","0.0-1.0-0.13","j","false","20","true","response","true",""
"","null","html-keyboard-response","28","98882","0.0-1.0-1.13","null","","","","","","Correct!"
"","949","canvas-keyboard-response","29","100333","0.0-1.0-0.14","j","false","10","false","response","true",""
"","null","html-keyboard-response","30","101834","0.0-1.0-1.14","null","","","","","","Correct!"
"","726","canvas-keyboard-response","31","103061","0.0-1.0-0.15","j","false","10","true","response","true",""
"","null","html-keyboard-response","32","104562","0.0-1.0-1.15","null","","","","","","Correct!"
"","669","canvas-keyboard-response","33","105733","0.0-1.0-0.16","j","false","10","false","response","true",""
"","null","html-keyboard-response","34","107237","0.0-1.0-1.16","null","","","","","","Correct!"
"","907","canvas-keyboard-response","35","108646","0.0-1.0-0.17","j","false","10","true","response","true",""
"","null","html-keyboard-response","36","110148","0.0-1.0-1.17","null","","","","","","Correct!"
"","861","canvas-keyboard-response","37","111510","0.0-1.0-0.18","j","false","20","false","response","true",""
"","null","html-keyboard-response","38","113012","0.0-1.0-1.18","null","","","","","","Correct!"
"","678","canvas-keyboard-response","39","114191","0.0-1.0-0.19","j","false","10","true","response","true",""
"","null","html-keyboard-response","40","115694","0.0-1.0-1.19","null","","","","","","Correct!"
"","1586","canvas-keyboard-response","41","117783","0.0-1.0-0.20","j","false","30","true","response","true",""
"","null","html-keyboard-response","42","119284","0.0-1.0-1.20","null","","","","","","Correct!"
"","1885","canvas-keyboard-response","43","121671","0.0-1.0-0.21","f","true","30","false","response","true",""
"","null","html-keyboard-response","44","123173","0.0-1.0-1.21","null","","","","","","Correct!"
"","2302","canvas-keyboard-response","45","125976","0.0-1.0-0.22","j","false","40","true","response","true",""
"","null","html-keyboard-response","46","127477","0.0-1.0-1.22","null","","","","","","Correct!<br><br><b>Work faster!</b>"
"","789","canvas-keyboard-response","47","128768","0.0-1.0-0.23","f","true","30","false","response","true",""
"","null","html-keyboard-response","48","130272","0.0-1.0-1.23","null","","","","","","Correct!"
"","699","canvas-keyboard-response","49","131472","0.0-1.0-0.24","j","false","10","true","response","true",""
"","null","html-keyboard-response","50","132974","0.0-1.0-1.24","null","","","","","","Correct!"
"","965","canvas-keyboard-response","51","134440","0.0-1.0-0.25","f","true","10","true","response","true",""
"","null","html-keyboard-response","52","135943","0.0-1.0-1.25","null","","","","","","Correct!"
"","1189","canvas-keyboard-response","53","137633","0.0-1.0-0.26","j","false","30","false","response","true",""
"","null","html-keyboard-response","54","139134","0.0-1.0-1.26","null","","","","","","Correct!"
"","854","canvas-keyboard-response","55","140489","0.0-1.0-0.27","f","true","10","false","response","true",""
"","null","html-keyboard-response","56","141991","0.0-1.0-1.27","null","","","","","","Correct!"
"","1981","canvas-keyboard-response","57","144474","0.0-1.0-0.28","f","true","40","true","response","true",""
"","null","html-keyboard-response","58","145975","0.0-1.0-1.28","null","","","","","","Correct!"
"","2062","canvas-keyboard-response","59","148538","0.0-1.0-0.29","j","false","40","true","response","true",""
"","null","html-keyboard-response","60","150040","0.0-1.0-1.29","null","","","","","","Correct!<br><br><b>Work faster!</b>"
"","796","canvas-keyboard-response","61","151338","0.0-1.0-0.30","f","true","30","false","response","true",""
"","null","html-keyboard-response","62","152841","0.0-1.0-1.30","null","","","","","","Correct!"
"","650","canvas-keyboard-response","63","153994","0.0-1.0-0.31","f","true","30","false","response","true",""
"","null","html-keyboard-response","64","155496","0.0-1.0-1.31","null","","","","","","Correct!"
"","2902","canvas-keyboard-response","65","158899","0.0-1.0-0.32","j","true","40","true","response","false",""
"","null","html-keyboard-response","66","160400","0.0-1.0-1.32","null","","","","","","Wrong<br><br><b>Work faster!</b>"
"","1221","canvas-keyboard-response","67","162123","0.0-1.0-0.33","j","false","20","true","response","true",""
"","null","html-keyboard-response","68","163625","0.0-1.0-1.33","null","","","","","","Correct!"
"","1028","canvas-keyboard-response","69","165155","0.0-1.0-0.34","j","false","40","false","response","true",""
"","null","html-keyboard-response","70","166658","0.0-1.0-1.34","null","","","","","","Correct!"
"","636","canvas-keyboard-response","71","167796","0.0-1.0-0.35","f","true","20","false","response","true",""
"","null","html-keyboard-response","72","169299","0.0-1.0-1.35","null","","","","","","Correct!"
"","1572","canvas-keyboard-response","73","171372","0.0-1.0-0.36","j","false","30","true","response","true",""
"","null","html-keyboard-response","74","172873","0.0-1.0-1.36","null","","","","","","Correct!"
"","814","canvas-keyboard-response","75","174188","0.0-1.0-0.37","f","true","20","true","response","true",""
"","null","html-keyboard-response","76","175690","0.0-1.0-1.37","null","","","","","","Correct!"
"","845","canvas-keyboard-response","77","177036","0.0-1.0-0.38","j","false","20","false","response","true",""
"","null","html-keyboard-response","78","178539","0.0-1.0-1.38","null","","","","","","Correct!"
"","588","canvas-keyboard-response","79","179628","0.0-1.0-0.39","f","true","20","false","response","true",""
"","null","html-keyboard-response","80","181131","0.0-1.0-1.39","null","","","","","","Correct!"
"","645","canvas-keyboard-response","81","182277","0.0-1.0-0.40","f","true","10","false","response","true",""
"","null","html-keyboard-response","82","183780","0.0-1.0-1.40","null","","","","","","Correct!"
"","1148","canvas-keyboard-response","83","185429","0.0-1.0-0.41","j","false","20","true","response","true",""
"","null","html-keyboard-response","84","186932","0.0-1.0-1.41","null","","","","","","Correct!"
"","804","canvas-keyboard-response","85","188237","0.0-1.0-0.42","f","true","40","false","response","true",""
"","null","html-keyboard-response","86","189740","0.0-1.0-1.42","null","","","","","","Correct!"
"","893","canvas-keyboard-response","87","191133","0.0-1.0-0.43","j","false","20","false","response","true",""
"","null","html-keyboard-response","88","192635","0.0-1.0-1.43","null","","","","","","Correct!"
"","566","canvas-keyboard-response","89","193702","0.0-1.0-0.44","j","true","30","false","response","false",""
"","null","html-keyboard-response","90","195204","0.0-1.0-1.44","null","","","","","","Wrong"
"","669","canvas-keyboard-response","91","196374","0.0-1.0-0.45","f","true","10","true","response","true",""
"","null","html-keyboard-response","92","197877","0.0-1.0-1.45","null","","","","","","Correct!"
"","949","canvas-keyboard-response","93","199326","0.0-1.0-0.46","j","false","20","false","response","true",""
"","null","html-keyboard-response","94","200829","0.0-1.0-1.46","null","","","","","","Correct!"
"","1740","canvas-keyboard-response","95","203071","0.0-1.0-0.47","j","false","20","true","response","true",""
"","null","html-keyboard-response","96","204573","0.0-1.0-1.47","null","","","","","","Correct!"
"","1796","canvas-keyboard-response","97","206871","0.0-1.0-0.48","j","false","40","true","response","true",""
"","null","html-keyboard-response","98","208373","0.0-1.0-1.48","null","","","","","","Correct!"
"","1093","canvas-keyboard-response","99","209967","0.0-1.0-0.49","f","true","10","true","response","true",""
"","null","html-keyboard-response","100","211470","0.0-1.0-1.49","null","","","","","","Correct!"
"","1308","canvas-keyboard-response","101","213279","0.0-1.0-0.50","j","false","30","false","response","true",""
"","null","html-keyboard-response","102","214781","0.0-1.0-1.50","null","","","","","","Correct!"
"","614","canvas-keyboard-response","103","215896","0.0-1.0-0.51","f","true","20","false","response","true",""
"","null","html-keyboard-response","104","217398","0.0-1.0-1.51","null","","","","","","Correct!"
"","709","canvas-keyboard-response","105","218608","0.0-1.0-0.52","f","true","20","false","response","true",""
"","null","html-keyboard-response","106","220110","0.0-1.0-1.52","null","","","","","","Correct!"
"","2141","canvas-keyboard-response","107","222752","0.0-1.0-0.53","j","false","30","true","response","true",""
"","null","html-keyboard-response","108","224255","0.0-1.0-1.53","null","","","","","","Correct!<br><br><b>Work faster!</b>"
"","597","canvas-keyboard-response","109","225353","0.0-1.0-0.54","f","true","20","false","response","true",""
"","null","html-keyboard-response","110","226856","0.0-1.0-1.54","null","","","","","","Correct!"
"","1116","canvas-keyboard-response","111","228472","0.0-1.0-0.55","j","false","10","true","response","true",""
"","null","html-keyboard-response","112","229974","0.0-1.0-1.55","null","","","","","","Correct!"
"","1341","canvas-keyboard-response","113","231817","0.0-1.0-0.56","j","true","20","true","response","false",""
"","null","html-keyboard-response","114","233318","0.0-1.0-1.56","null","","","","","","Wrong"
"","693","canvas-keyboard-response","115","234513","0.0-1.0-0.57","j","false","10","false","response","true",""
"","null","html-keyboard-response","116","236015","0.0-1.0-1.57","null","","","","","","Correct!"
"","1197","canvas-keyboard-response","117","237713","0.0-1.0-0.58","j","true","30","true","response","false",""
"","null","html-keyboard-response","118","239215","0.0-1.0-1.58","null","","","","","","Wrong"
"","549","canvas-keyboard-response","119","240265","0.0-1.0-0.59","f","true","20","false","response","true",""
"","null","html-keyboard-response","120","241767","0.0-1.0-1.59","null","","","","","","Correct!"
"","1462","canvas-keyboard-response","121","243730","0.0-1.0-0.60","j","false","40","true","response","true",""
"","null","html-keyboard-response","122","245232","0.0-1.0-1.60","null","","","","","","Correct!"
"","629","canvas-keyboard-response","123","246362","0.0-1.0-0.61","j","false","10","true","response","true",""
"","null","html-keyboard-response","124","247864","0.0-1.0-1.61","null","","","","","","Correct!"
"","2390","canvas-keyboard-response","125","250754","0.0-1.0-0.62","f","true","40","true","response","true",""
"","null","html-keyboard-response","126","252257","0.0-1.0-1.62","null","","","","","","Correct!<br><br><b>Work faster!</b>"
"","1004","canvas-keyboard-response","127","253763","0.0-1.0-0.63","f","true","10","true","response","true",""
"","null","html-keyboard-response","128","255264","0.0-1.0-1.63","null","","","","","","Correct!"
"","597","canvas-keyboard-response","129","256363","0.0-1.0-0.64","f","true","20","false","response","true",""
"","null","html-keyboard-response","130","257865","0.0-1.0-1.64","null","","","","","","Correct!"
"","773","canvas-keyboard-response","131","259139","0.0-1.0-0.65","j","false","20","false","response","true",""
"","null","html-keyboard-response","132","260640","0.0-1.0-1.65","null","","","","","","Correct!"
"","2173","canvas-keyboard-response","133","263315","0.0-1.0-0.66","j","false","40","true","response","true",""
"","null","html-keyboard-response","134","264818","0.0-1.0-1.66","null","","","","","","Correct!<br><br><b>Work faster!</b>"
"","581","canvas-keyboard-response","135","265900","0.0-1.0-0.67","j","false","10","true","response","true",""
"","null","html-keyboard-response","136","267401","0.0-1.0-1.67","null","","","","","","Correct!"
"","622","canvas-keyboard-response","137","268524","0.0-1.0-0.68","j","false","20","false","response","true",""
"","null","html-keyboard-response","138","270026","0.0-1.0-1.68","null","","","","","","Correct!"
"","989","canvas-keyboard-response","139","271516","0.0-1.0-0.69","j","false","20","true","response","true",""
"","null","html-keyboard-response","140","273018","0.0-1.0-1.69","null","","","","","","Correct!"
"","581","canvas-keyboard-response","141","274100","0.0-1.0-0.70","f","true","20","false","response","true",""
"","null","html-keyboard-response","142","275602","0.0-1.0-1.70","null","","","","","","Correct!"
"","525","canvas-keyboard-response","143","276629","0.0-1.0-0.71","j","false","10","false","response","true",""
"","null","html-keyboard-response","144","278130","0.0-1.0-1.71","null","","","","","","Correct!"
"","894","canvas-keyboard-response","145","279525","0.0-1.0-0.72","j","false","10","false","response","true",""
"","null","html-keyboard-response","146","281027","0.0-1.0-1.72","null","","","","","","Correct!"
"","676","canvas-keyboard-response","147","282205","0.0-1.0-0.73","f","true","30","false","response","true",""
"","null","html-keyboard-response","148","283706","0.0-1.0-1.73","null","","","","","","Correct!"
"","742","canvas-keyboard-response","149","284949","0.0-1.0-0.74","j","false","10","false","response","true",""
"","null","html-keyboard-response","150","286451","0.0-1.0-1.74","null","","","","","","Correct!"
"","1885","canvas-keyboard-response","151","288837","0.0-1.0-0.75","j","false","40","true","response","true",""
"","null","html-keyboard-response","152","290340","0.0-1.0-1.75","null","","","","","","Correct!"
"","1244","canvas-keyboard-response","153","292086","0.0-1.0-0.76","j","false","30","true","response","true",""
"","null","html-keyboard-response","154","293587","0.0-1.0-1.76","null","","","","","","Correct!"
"","854","canvas-keyboard-response","155","294942","0.0-1.0-0.77","f","true","20","true","response","true",""
"","null","html-keyboard-response","156","296444","0.0-1.0-1.77","null","","","","","","Correct!"
"","1253","canvas-keyboard-response","157","298198","0.0-1.0-0.78","j","false","30","true","response","true",""
"","null","html-keyboard-response","158","299700","0.0-1.0-1.78","null","","","","","","Correct!"
"","589","canvas-keyboard-response","159","300790","0.0-1.0-0.79","f","true","30","false","response","true",""
"","null","html-keyboard-response","160","302293","0.0-1.0-1.79","null","","","","","","Correct!"
"","532","canvas-keyboard-response","161","303327","0.0-1.0-0.80","f","true","20","false","response","true",""
"","null","html-keyboard-response","162","304829","0.0-1.0-1.80","null","","","","","","Correct!"
"","525","canvas-keyboard-response","163","305855","0.0-1.0-0.81","f","true","30","false","response","true",""
"","null","html-keyboard-response","164","307356","0.0-1.0-1.81","null","","","","","","Correct!"
"","492","canvas-keyboard-response","165","308351","0.0-1.0-0.82","f","true","20","false","response","true",""
"","null","html-keyboard-response","166","309853","0.0-1.0-1.82","null","","","","","","Correct!"
"","925","canvas-keyboard-response","167","311279","0.0-1.0-0.83","f","true","30","true","response","true",""
"","null","html-keyboard-response","168","312780","0.0-1.0-1.83","null","","","","","","Correct!"
"","830","canvas-keyboard-response","169","314111","0.0-1.0-0.84","f","true","30","true","response","true",""
"","null","html-keyboard-response","170","315614","0.0-1.0-1.84","null","","","","","","Correct!"
"","732","canvas-keyboard-response","171","316848","0.0-1.0-0.85","j","false","20","false","response","true",""
"","null","html-keyboard-response","172","318349","0.0-1.0-1.85","null","","","","","","Correct!"
"","574","canvas-keyboard-response","173","319424","0.0-1.0-0.86","j","false","20","false","response","true",""
"","null","html-keyboard-response","174","320926","0.0-1.0-1.86","null","","","","","","Correct!"
"","1574","canvas-keyboard-response","175","323001","0.0-1.0-0.87","f","true","40","true","response","true",""
"","null","html-keyboard-response","176","324503","0.0-1.0-1.87","null","","","","","","Correct!"
"","924","canvas-keyboard-response","177","325929","0.0-1.0-0.88","f","true","20","true","response","true",""
"","null","html-keyboard-response","178","327430","0.0-1.0-1.88","null","","","","","","Correct!"
"","1038","canvas-keyboard-response","179","328969","0.0-1.0-0.89","j","false","30","true","response","true",""
"","null","html-keyboard-response","180","330470","0.0-1.0-1.89","null","","","","","","Correct!"
"","708","canvas-keyboard-response","181","331681","0.0-1.0-0.90","f","true","10","false","response","true",""
"","null","html-keyboard-response","182","333184","0.0-1.0-1.90","null","","","","","","Correct!"
"","628","canvas-keyboard-response","183","334313","0.0-1.0-0.91","f","true","10","false","response","true",""
"","null","html-keyboard-response","184","335815","0.0-1.0-1.91","null","","","","","","Correct!"
"","582","canvas-keyboard-response","185","336897","0.0-1.0-0.92","j","false","10","false","response","true",""
"","null","html-keyboard-response","186","338400","0.0-1.0-1.92","null","","","","","","Correct!"
"","716","canvas-keyboard-response","187","339618","0.0-1.0-0.93","j","false","30","false","response","true",""
"","null","html-keyboard-response","188","341120","0.0-1.0-1.93","null","","","","","","Correct!"
"","1477","canvas-keyboard-response","189","343098","0.0-1.0-0.94","j","false","40","true","response","true",""
"","null","html-keyboard-response","190","344600","0.0-1.0-1.94","null","","","","","","Correct!"
"","629","canvas-keyboard-response","191","345730","0.0-1.0-0.95","f","true","20","true","response","true",""
"","null","html-keyboard-response","192","347232","0.0-1.0-1.95","null","","","","","","Correct!"
"","837","canvas-keyboard-response","193","348571","0.0-1.0-0.96","f","true","40","false","response","true",""
"","null","html-keyboard-response","194","350072","0.0-1.0-1.96","null","","","","","","Correct!"
"","1118","canvas-keyboard-response","195","351691","0.0-1.0-0.97","f","true","10","true","response","true",""
"","null","html-keyboard-response","196","353192","0.0-1.0-1.97","null","","","","","","Correct!"
"","886","canvas-keyboard-response","197","354579","0.0-1.0-0.98","f","true","20","true","response","true",""
"","null","html-keyboard-response","198","356081","0.0-1.0-1.98","null","","","","","","Correct!"
"","596","canvas-keyboard-response","199","357179","0.0-1.0-0.99","f","true","40","false","response","true",""
"","null","html-keyboard-response","200","358682","0.0-1.0-1.99","null","","","","","","Correct!"
"","2285","canvas-keyboard-response","201","361468","0.0-1.0-0.100","j","true","40","true","response","false",""
"","null","html-keyboard-response","202","362970","0.0-1.0-1.100","null","","","","","","Wrong<br><br><b>Work faster!</b>"
"","1357","canvas-keyboard-response","203","364828","0.0-1.0-0.101","j","true","10","true","response","false",""
"","null","html-keyboard-response","204","366330","0.0-1.0-1.101","null","","","","","","Wrong"
"","1613","canvas-keyboard-response","205","368444","0.0-1.0-0.102","j","false","40","false","response","true",""
"","null","html-keyboard-response","206","369948","0.0-1.0-1.102","null","","","","","","Correct!"
"","723","canvas-keyboard-response","207","371172","0.0-1.0-0.103","f","true","30","false","response","true",""
"","null","html-keyboard-response","208","372675","0.0-1.0-1.103","null","","","","","","Correct!"
"","1749","canvas-keyboard-response","209","374925","0.0-1.0-0.104","j","false","40","true","response","true",""
"","null","html-keyboard-response","210","376427","0.0-1.0-1.104","null","","","","","","Correct!"
"","653","canvas-keyboard-response","211","377581","0.0-1.0-0.105","f","true","40","false","response","true",""
"","null","html-keyboard-response","212","379084","0.0-1.0-1.105","null","","","","","","Correct!"
"","676","canvas-keyboard-response","213","380261","0.0-1.0-0.106","f","true","10","false","response","true",""
"","null","html-keyboard-response","214","381764","0.0-1.0-1.106","null","","","","","","Correct!"
"","1157","canvas-keyboard-response","215","383421","0.0-1.0-0.107","f","true","20","false","response","true",""
"","null","html-keyboard-response","216","384924","0.0-1.0-1.107","null","","","","","","Correct!"
"","1204","canvas-keyboard-response","217","386630","0.0-1.0-0.108","f","true","40","true","response","true",""
"","null","html-keyboard-response","218","388131","0.0-1.0-1.108","null","","","","","","Correct!"
"","565","canvas-keyboard-response","219","389198","0.0-1.0-0.109","f","true","30","false","response","true",""
"","null","html-keyboard-response","220","390701","0.0-1.0-1.109","null","","","","","","Correct!"
"","724","canvas-keyboard-response","221","391926","0.0-1.0-0.110","j","false","10","false","response","true",""
"","null","html-keyboard-response","222","393428","0.0-1.0-1.110","null","","","","","","Correct!"
"","1085","canvas-keyboard-response","223","395015","0.0-1.0-0.111","j","false","10","true","response","true",""
"","null","html-keyboard-response","224","396518","0.0-1.0-1.111","null","","","","","","Correct!"
"","987","canvas-keyboard-response","225","398007","0.0-1.0-0.112","j","false","30","true","response","true",""
"","null","html-keyboard-response","226","399509","0.0-1.0-1.112","null","","","","","","Correct!"
"","917","canvas-keyboard-response","227","400927","0.0-1.0-0.113","f","true","10","true","response","true",""
"","null","html-keyboard-response","228","402429","0.0-1.0-1.113","null","","","","","","Correct!"
"","765","canvas-keyboard-response","229","403695","0.0-1.0-0.114","j","true","10","true","response","false",""
"","null","html-keyboard-response","230","405198","0.0-1.0-1.114","null","","","","","","Wrong"
"","580","canvas-keyboard-response","231","406280","0.0-1.0-0.115","j","true","40","false","response","false",""
"","null","html-keyboard-response","232","407781","0.0-1.0-1.115","null","","","","","","Wrong"
"","1085","canvas-keyboard-response","233","409368","0.0-1.0-0.116","j","false","40","false","response","true",""
"","null","html-keyboard-response","234","410869","0.0-1.0-1.116","null","","","","","","Correct!"
"","1470","canvas-keyboard-response","235","412841","0.0-1.0-0.117","f","true","10","true","response","true",""
"","null","html-keyboard-response","236","414343","0.0-1.0-1.117","null","","","","","","Correct!"
"","1172","canvas-keyboard-response","237","416017","0.0-1.0-0.118","j","false","20","true","response","true",""
"","null","html-keyboard-response","238","417518","0.0-1.0-1.118","null","","","","","","Correct!"
"","1557","canvas-keyboard-response","239","419577","0.0-1.0-0.119","f","true","30","true","response","true",""
"","null","html-keyboard-response","240","421078","0.0-1.0-1.119","null","","","","","","Correct!"
"","819","canvas-keyboard-response","241","422401","0.0-1.0-0.120","j","false","10","false","response","true",""
"","null","html-keyboard-response","242","423904","0.0-1.0-1.120","null","","","","","","Correct!"
"","724","canvas-keyboard-response","243","425129","0.0-1.0-0.121","f","true","10","false","response","true",""
"","null","html-keyboard-response","244","426632","0.0-1.0-1.121","null","","","","","","Correct!"
"","700","canvas-keyboard-response","245","427834","0.0-1.0-0.122","j","false","40","false","response","true",""
"","null","html-keyboard-response","246","429335","0.0-1.0-1.122","null","","","","","","Correct!"
"","806","canvas-keyboard-response","247","430642","0.0-1.0-0.123","f","true","20","false","response","true",""
"","null","html-keyboard-response","248","432143","0.0-1.0-1.123","null","","","","","","Correct!"
"","742","canvas-keyboard-response","249","433386","0.0-1.0-0.124","j","false","40","false","response","true",""
"","null","html-keyboard-response","250","434888","0.0-1.0-1.124","null","","","","","","Correct!"
"","1053","canvas-keyboard-response","251","436442","0.0-1.0-0.125","f","true","20","true","response","true",""
"","null","html-keyboard-response","252","437945","0.0-1.0-1.125","null","","","","","","Correct!"
"","532","canvas-keyboard-response","253","438979","0.0-1.0-0.126","f","true","30","false","response","true",""
"","null","html-keyboard-response","254","440480","0.0-1.0-1.126","null","","","","","","Correct!"
"","774","canvas-keyboard-response","255","441755","0.0-1.0-0.127","j","false","10","true","response","true",""
"","null","html-keyboard-response","256","443257","0.0-1.0-1.127","null","","","","","","Correct!"
"","853","canvas-keyboard-response","257","444611","0.0-1.0-0.128","f","true","20","true","response","true",""
"","null","html-keyboard-response","258","446112","0.0-1.0-1.128","null","","","","","","Correct!"
"","1879","canvas-keyboard-response","259","448491","0.0-1.0-0.129","j","false","30","true","response","true",""
"","null","html-keyboard-response","260","449993","0.0-1.0-1.129","null","","","","","","Correct!"
"","748","canvas-keyboard-response","261","451244","0.0-1.0-0.130","j","false","20","true","response","true",""
"","null","html-keyboard-response","262","452745","0.0-1.0-1.130","null","","","","","","Correct!"
"","534","canvas-keyboard-response","263","453780","0.0-1.0-0.131","f","true","30","false","response","true",""
"","null","html-keyboard-response","264","455282","0.0-1.0-1.131","null","","","","","","Correct!"
"","1406","canvas-keyboard-response","265","457188","0.0-1.0-0.132","j","false","40","true","response","true",""
"","null","html-keyboard-response","266","458690","0.0-1.0-1.132","null","","","","","","Correct!"
"","805","canvas-keyboard-response","267","459997","0.0-1.0-0.133","f","true","40","true","response","true",""
"","null","html-keyboard-response","268","461498","0.0-1.0-1.133","null","","","","","","Correct!"
"","1142","canvas-keyboard-response","269","463141","0.0-1.0-0.134","f","true","40","true","response","true",""
"","null","html-keyboard-response","270","464643","0.0-1.0-1.134","null","","","","","","Correct!"
"","876","canvas-keyboard-response","271","466021","0.0-1.0-0.135","j","false","30","true","response","true",""
"","null","html-keyboard-response","272","467525","0.0-1.0-1.135","null","","","","","","Correct!"
"","771","canvas-keyboard-response","273","468797","0.0-1.0-0.136","j","false","30","false","response","true",""
"","null","html-keyboard-response","274","470299","0.0-1.0-1.136","null","","","","","","Correct!"
"","1109","canvas-keyboard-response","275","471909","0.0-1.0-0.137","j","false","20","true","response","true",""
"","null","html-keyboard-response","276","473412","0.0-1.0-1.137","null","","","","","","Correct!"
"","725","canvas-keyboard-response","277","474638","0.0-1.0-0.138","j","false","30","false","response","true",""
"","null","html-keyboard-response","278","476140","0.0-1.0-1.138","null","","","","","","Correct!"
"","572","canvas-keyboard-response","279","477214","0.0-1.0-0.139","j","false","30","false","response","true",""
"","null","html-keyboard-response","280","478716","0.0-1.0-1.139","null","","","","","","Correct!"
"","1614","canvas-keyboard-response","281","480830","0.0-1.0-0.140","j","true","40","true","response","false",""
"","null","html-keyboard-response","282","482332","0.0-1.0-1.140","null","","","","","","Wrong"
"","565","canvas-keyboard-response","283","483399","0.0-1.0-0.141","j","false","40","false","response","true",""
"","null","html-keyboard-response","284","484901","0.0-1.0-1.141","null","","","","","","Correct!"
"","661","canvas-keyboard-response","285","486063","0.0-1.0-0.142","j","false","30","false","response","true",""
"","null","html-keyboard-response","286","487565","0.0-1.0-1.142","null","","","","","","Correct!"
"","806","canvas-keyboard-response","287","488871","0.0-1.0-0.143","j","false","10","true","response","true",""
"","null","html-keyboard-response","288","490372","0.0-1.0-1.143","null","","","","","","Correct!"
"","654","canvas-keyboard-response","289","491527","0.0-1.0-0.144","j","false","20","false","response","true",""
"","null","html-keyboard-response","290","493030","0.0-1.0-1.144","null","","","","","","Correct!"
"","637","canvas-keyboard-response","291","494167","0.0-1.0-0.145","f","true","10","false","response","true",""
"","null","html-keyboard-response","292","495669","0.0-1.0-1.145","null","","","","","","Correct!"
"","886","canvas-keyboard-response","293","497056","0.0-1.0-0.146","f","true","40","true","response","true",""
"","null","html-keyboard-response","294","498558","0.0-1.0-1.146","null","","","","","","Correct!"
"","981","canvas-keyboard-response","295","500040","0.0-1.0-0.147","f","true","40","true","response","true",""
"","null","html-keyboard-response","296","501542","0.0-1.0-1.147","null","","","","","","Correct!"
"","974","canvas-keyboard-response","297","503016","0.0-1.0-0.148","f","true","30","true","response","true",""
"","null","html-keyboard-response","298","504518","0.0-1.0-1.148","null","","","","","","Correct!"
"","589","canvas-keyboard-response","299","505608","0.0-1.0-0.149","f","true","40","false","response","true",""
"","null","html-keyboard-response","300","507112","0.0-1.0-1.149","null","","","","","","Correct!"
"","1204","canvas-keyboard-response","301","508817","0.0-1.0-0.150","j","false","10","false","response","true",""
"","null","html-keyboard-response","302","510318","0.0-1.0-1.150","null","","","","","","Correct!"
"","2787","canvas-keyboard-response","303","513609","0.0-1.0-0.151","j","false","30","true","response","true",""
"","null","html-keyboard-response","304","515112","0.0-1.0-1.151","null","","","","","","Correct!<br><br><b>Work faster!</b>"
"","804","canvas-keyboard-response","305","516418","0.0-1.0-0.152","f","true","10","true","response","true",""
"","null","html-keyboard-response","306","517920","0.0-1.0-1.152","null","","","","","","Correct!"
"","580","canvas-keyboard-response","307","519002","0.0-1.0-0.153","j","false","40","false","response","true",""
"","null","html-keyboard-response","308","520503","0.0-1.0-1.153","null","","","","","","Correct!"
"","581","canvas-keyboard-response","309","521586","0.0-1.0-0.154","j","false","40","false","response","true",""
"","null","html-keyboard-response","310","523087","0.0-1.0-1.154","null","","","","","","Correct!"
"","645","canvas-keyboard-response","311","524234","0.0-1.0-0.155","f","true","40","true","response","true",""
"","null","html-keyboard-response","312","525735","0.0-1.0-1.155","null","","","","","","Correct!"
"","574","canvas-keyboard-response","313","526810","0.0-1.0-0.156","f","true","40","false","response","true",""
"","null","html-keyboard-response","314","528313","0.0-1.0-1.156","null","","","","","","Correct!"
"","1692","canvas-keyboard-response","315","530506","0.0-1.0-0.157","f","true","30","true","response","true",""
"","null","html-keyboard-response","316","532008","0.0-1.0-1.157","null","","","","","","Correct!"
"","1005","canvas-keyboard-response","317","533515","0.0-1.0-0.158","f","true","30","true","response","true",""
"","null","html-keyboard-response","318","535016","0.0-1.0-1.158","null","","","","","","Correct!"
"","646","canvas-keyboard-response","319","536163","0.0-1.0-0.159","j","true","20","true","response","false",""
"","null","html-keyboard-response","320","537665","0.0-1.0-1.159","null","","","","","","Wrong"
"","1013","canvas-keyboard-response","321","539179","0.0-1.0-0.160","j","false","10","true","response","true",""
"","null","html-keyboard-response","322","540681","0.0-1.0-1.160","null","","","","","","Correct!"
"","662","canvas-keyboard-response","323","541843","0.0-1.0-0.161","j","false","10","true","response","true",""
"","null","html-keyboard-response","324","543345","0.0-1.0-1.161","null","","","","","","Correct!"
"","1782","canvas-keyboard-response","325","545627","0.0-1.0-0.162","j","false","40","true","response","true",""
"","null","html-keyboard-response","326","547130","0.0-1.0-1.162","null","","","","","","Correct!"
"","709","canvas-keyboard-response","327","548340","0.0-1.0-0.163","j","false","40","false","response","true",""
"","null","html-keyboard-response","328","549842","0.0-1.0-1.163","null","","","","","","Correct!"
"","997","canvas-keyboard-response","329","551340","0.0-1.0-0.164","f","true","20","true","response","true",""
"","null","html-keyboard-response","330","552843","0.0-1.0-1.164","null","","","","","","Correct!"
"","1493","canvas-keyboard-response","331","554837","0.0-1.0-0.165","f","true","40","true","response","true",""
"","null","html-keyboard-response","332","556339","0.0-1.0-1.165","null","","","","","","Correct!"
"","644","canvas-keyboard-response","333","557485","0.0-1.0-0.166","f","true","40","false","response","true",""
"","null","html-keyboard-response","334","558987","0.0-1.0-1.166","null","","","","","","Correct!"
"","741","canvas-keyboard-response","335","560229","0.0-1.0-0.167","f","true","10","false","response","true",""
"","null","html-keyboard-response","336","561731","0.0-1.0-1.167","null","","","","","","Correct!"
"","717","canvas-keyboard-response","337","562949","0.0-1.0-0.168","f","true","20","false","response","true",""
"","null","html-keyboard-response","338","564451","0.0-1.0-1.168","null","","","","","","Correct!"
"","1781","canvas-keyboard-response","339","566734","0.0-1.0-0.169","j","false","40","true","response","true",""
"","null","html-keyboard-response","340","568236","0.0-1.0-1.169","null","","","","","","Correct!"
"","1076","canvas-keyboard-response","341","569814","0.0-1.0-0.170","j","false","20","true","response","true",""
"","null","html-keyboard-response","342","571315","0.0-1.0-1.170","null","","","","","","Correct!"
"","806","canvas-keyboard-response","343","572622","0.0-1.0-0.171","j","false","40","false","response","true",""
"","null","html-keyboard-response","344","574123","0.0-1.0-1.171","null","","","","","","Correct!"
"","869","canvas-keyboard-response","345","575494","0.0-1.0-0.172","j","true","20","true","response","false",""
"","null","html-keyboard-response","346","576995","0.0-1.0-1.172","null","","","","","","Wrong"
"","2119","canvas-keyboard-response","347","579615","0.0-1.0-0.173","f","true","40","true","response","true",""
"","null","html-keyboard-response","348","581117","0.0-1.0-1.173","null","","","","","","Correct!<br><br><b>Work faster!</b>"
"","661","canvas-keyboard-response","349","582279","0.0-1.0-0.174","j","false","30","false","response","true",""
"","null","html-keyboard-response","350","583782","0.0-1.0-1.174","null","","","","","","Correct!"
"","701","canvas-keyboard-response","351","584983","0.0-1.0-0.175","f","true","10","false","response","true",""
"","null","html-keyboard-response","352","586485","0.0-1.0-1.175","null","","","","","","Correct!"
"","558","canvas-keyboard-response","353","587543","0.0-1.0-0.176","j","false","10","false","response","true",""
"","null","html-keyboard-response","354","589045","0.0-1.0-1.176","null","","","","","","Correct!"
"","821","canvas-keyboard-response","355","590368","0.0-1.0-0.177","f","true","30","true","response","true",""
"","null","html-keyboard-response","356","591870","0.0-1.0-1.177","null","","","","","","Correct!"
"","2188","canvas-keyboard-response","357","594560","0.0-1.0-0.178","f","true","10","true","response","true",""
"","null","html-keyboard-response","358","596062","0.0-1.0-1.178","null","","","","","","Correct!<br><br><b>Work faster!</b>"
"","709","canvas-keyboard-response","359","597272","0.0-1.0-0.179","j","false","10","true","response","true",""
"","null","html-keyboard-response","360","598774","0.0-1.0-1.179","null","","","","","","Correct!"
"","709","canvas-keyboard-response","361","599984","0.0-1.0-0.180","j","false","20","false","response","true",""
"","null","html-keyboard-response","362","601487","0.0-1.0-1.180","null","","","","","","Correct!"
"","1525","canvas-keyboard-response","363","603513","0.0-1.0-0.181","f","true","30","true","response","true",""
"","null","html-keyboard-response","364","605018","0.0-1.0-1.181","null","","","","","","Correct!"
"","538","canvas-keyboard-response","365","606057","0.0-1.0-0.182","f","true","40","false","response","true",""
"","null","html-keyboard-response","366","607559","0.0-1.0-1.182","null","","","","","","Correct!"
"","598","canvas-keyboard-response","367","608657","0.0-1.0-0.183","j","false","30","false","response","true",""
"","null","html-keyboard-response","368","610158","0.0-1.0-1.183","null","","","","","","Correct!"
"","1086","canvas-keyboard-response","369","611745","0.0-1.0-0.184","j","false","30","true","response","true",""
"","null","html-keyboard-response","370","613247","0.0-1.0-1.184","null","","","","","","Correct!"
"","654","canvas-keyboard-response","371","614402","0.0-1.0-0.185","j","false","10","false","response","true",""
"","null","html-keyboard-response","372","615904","0.0-1.0-1.185","null","","","","","","Correct!"
"","493","canvas-keyboard-response","373","616898","0.0-1.0-0.186","j","false","20","false","response","true",""
"","null","html-keyboard-response","374","618399","0.0-1.0-1.186","null","","","","","","Correct!"
"","454","canvas-keyboard-response","375","619354","0.0-1.0-0.187","j","false","40","false","response","true",""
"","null","html-keyboard-response","376","620857","0.0-1.0-1.187","null","","","","","","Correct!"
"","396","canvas-keyboard-response","377","621754","0.0-1.0-0.188","j","false","10","false","response","true",""
"","null","html-keyboard-response","378","623257","0.0-1.0-1.188","null","","","","","","Correct!"
"","372","canvas-keyboard-response","379","624131","0.0-1.0-0.189","j","false","10","false","response","true",""
"","null","html-keyboard-response","380","625634","0.0-1.0-1.189","null","","","","","","Correct!"
"","1692","canvas-keyboard-response","381","627827","0.0-1.0-0.190","j","false","30","true","response","true",""
"","null","html-keyboard-response","382","629329","0.0-1.0-1.190","null","","","","","","Correct!"
"","493","canvas-keyboard-response","383","630323","0.0-1.0-0.191","j","true","40","false","response","false",""
"","null","html-keyboard-response","384","631825","0.0-1.0-1.191","null","","","","","","Wrong"
"","613","canvas-keyboard-response","385","632939","0.0-1.0-0.192","f","false","10","true","response","false",""
"","null","html-keyboard-response","386","634442","0.0-1.0-1.192","null","","","","","","Wrong"
"","772","canvas-keyboard-response","387","635715","0.0-1.0-0.193","f","true","10","true","response","true",""
"","null","html-keyboard-response","388","637218","0.0-1.0-1.193","null","","","","","","Correct!"
"","605","canvas-keyboard-response","389","638324","0.0-1.0-0.194","j","false","30","false","response","true",""
"","null","html-keyboard-response","390","639826","0.0-1.0-1.194","null","","","","","","Correct!"
"","773","canvas-keyboard-response","391","641100","0.0-1.0-0.195","f","true","20","true","response","true",""
"","null","html-keyboard-response","392","642603","0.0-1.0-1.195","null","","","","","","Correct!"
"","996","canvas-keyboard-response","393","644100","0.0-1.0-0.196","f","true","30","true","response","true",""
"","null","html-keyboard-response","394","645603","0.0-1.0-1.196","null","","","","","","Correct!"
"","620","canvas-keyboard-response","395","646724","0.0-1.0-0.197","f","true","10","false","response","true",""
"","null","html-keyboard-response","396","648227","0.0-1.0-1.197","null","","","","","","Correct!"
"","1061","canvas-keyboard-response","397","649789","0.0-1.0-0.198","j","false","10","true","response","true",""
"","null","html-keyboard-response","398","651291","0.0-1.0-1.198","null","","","","","","Correct!"
"","549","canvas-keyboard-response","399","652341","0.0-1.0-0.199","f","true","20","false","response","true",""
"","null","html-keyboard-response","400","653843","0.0-1.0-1.199","null","","","","","","Correct!"
"","1013","canvas-keyboard-response","401","655358","0.0-1.0-0.200","f","true","10","true","response","true",""
"","null","html-keyboard-response","402","656861","0.0-1.0-1.200","null","","","","","","Correct!"
"","1276","canvas-keyboard-response","403","658638","0.0-1.0-0.201","f","true","30","true","response","true",""
"","null","html-keyboard-response","404","660140","0.0-1.0-1.201","null","","","","","","Correct!"
"","518","canvas-keyboard-response","405","661158","0.0-1.0-0.202","j","false","30","false","response","true",""
"","null","html-keyboard-response","406","662660","0.0-1.0-1.202","null","","","","","","Correct!"
"","701","canvas-keyboard-response","407","663862","0.0-1.0-0.203","f","true","10","false","response","true",""
"","null","html-keyboard-response","408","665363","0.0-1.0-1.203","null","","","","","","Correct!"
"","3086","canvas-keyboard-response","409","668951","0.0-1.0-0.204","j","false","40","true","response","true",""
"","null","html-keyboard-response","410","670454","0.0-1.0-1.204","null","","","","","","Correct!<br><br><b>Work faster!</b>"
"","661","canvas-keyboard-response","411","671616","0.0-1.0-0.205","f","false","40","true","response","false",""
"","null","html-keyboard-response","412","673118","0.0-1.0-1.205","null","","","","","","Wrong"
"","965","canvas-keyboard-response","413","674583","0.0-1.0-0.206","j","false","30","true","response","true",""
"","null","html-keyboard-response","414","676085","0.0-1.0-1.206","null","","","","","","Correct!"
"","1014","canvas-keyboard-response","415","677600","0.0-1.0-0.207","j","true","20","true","response","false",""
"","null","html-keyboard-response","416","679101","0.0-1.0-1.207","null","","","","","","Wrong"
"","1878","canvas-keyboard-response","417","681480","0.0-1.0-0.208","j","false","30","true","response","true",""
"","null","html-keyboard-response","418","682983","0.0-1.0-1.208","null","","","","","","Correct!"
"","1766","canvas-keyboard-response","419","685249","0.0-1.0-0.209","j","false","30","true","response","true",""
"","null","html-keyboard-response","420","686751","0.0-1.0-1.209","null","","","","","","Correct!"
"","637","canvas-keyboard-response","421","687889","0.0-1.0-0.210","j","false","20","false","response","true",""
"","null","html-keyboard-response","422","689391","0.0-1.0-1.210","null","","","","","","Correct!"
"","581","canvas-keyboard-response","423","690473","0.0-1.0-0.211","f","true","10","false","response","true",""
"","null","html-keyboard-response","424","691975","0.0-1.0-1.211","null","","","","","","Correct!"
"","597","canvas-keyboard-response","425","693073","0.0-1.0-0.212","f","true","20","false","response","true",""
"","null","html-keyboard-response","426","694574","0.0-1.0-1.212","null","","","","","","Correct!"
"","1055","canvas-keyboard-response","427","696130","0.0-1.0-0.213","j","false","20","true","response","true",""
"","null","html-keyboard-response","428","697631","0.0-1.0-1.213","null","","","","","","Correct!"
"","918","canvas-keyboard-response","429","699050","0.0-1.0-0.214","j","false","30","false","response","true",""
"","null","html-keyboard-response","430","700551","0.0-1.0-1.214","null","","","","","","Correct!"
"","566","canvas-keyboard-response","431","701618","0.0-1.0-0.215","f","true","10","false","response","true",""
"","null","html-keyboard-response","432","703119","0.0-1.0-1.215","null","","","","","","Correct!"
"","653","canvas-keyboard-response","433","704274","0.0-1.0-0.216","f","true","10","false","response","true",""
"","null","html-keyboard-response","434","705775","0.0-1.0-1.216","null","","","","","","Correct!"
"","1119","canvas-keyboard-response","435","707395","0.0-1.0-0.217","j","false","10","true","response","true",""
"","null","html-keyboard-response","436","708897","0.0-1.0-1.217","null","","","","","","Correct!"
"","1117","canvas-keyboard-response","437","710515","0.0-1.0-0.218","j","false","40","true","response","true",""
"","null","html-keyboard-response","438","712016","0.0-1.0-1.218","null","","","","","","Correct!"
"","556","canvas-keyboard-response","439","713075","0.0-1.0-0.219","j","false","40","false","response","true",""
"","null","html-keyboard-response","440","714577","0.0-1.0-1.219","null","","","","","","Correct!"
"","533","canvas-keyboard-response","441","715611","0.0-1.0-0.220","f","true","40","false","response","true",""
"","null","html-keyboard-response","442","717114","0.0-1.0-1.220","null","","","","","","Correct!"
"","1533","canvas-keyboard-response","443","719148","0.0-1.0-0.221","f","true","10","false","response","true",""
"","null","html-keyboard-response","444","720648","0.0-1.0-1.221","null","","","","","","Correct!"
"","550","canvas-keyboard-response","445","721700","0.0-1.0-0.222","f","true","20","false","response","true",""
"","null","html-keyboard-response","446","723202","0.0-1.0-1.222","null","","","","","","Correct!"
"","549","canvas-keyboard-response","447","724252","0.0-1.0-0.223","f","true","40","false","response","true",""
"","null","html-keyboard-response","448","725754","0.0-1.0-1.223","null","","","","","","Correct!"
"","436","canvas-keyboard-response","449","726692","0.0-1.0-0.224","j","false","20","false","response","true",""
"","null","html-keyboard-response","450","728194","0.0-1.0-1.224","null","","","","","","Correct!"
"","1062","canvas-keyboard-response","451","729756","0.0-1.0-0.225","j","false","10","true","response","true",""
"","null","html-keyboard-response","452","731258","0.0-1.0-1.225","null","","","","","","Correct!"
"","749","canvas-keyboard-response","453","732508","0.0-1.0-0.226","f","true","10","true","response","true",""
"","null","html-keyboard-response","454","734010","0.0-1.0-1.226","null","","","","","","Correct!"
"","597","canvas-keyboard-response","455","735109","0.0-1.0-0.227","f","true","30","true","response","true",""
"","null","html-keyboard-response","456","736610","0.0-1.0-1.227","null","","","","","","Correct!"
"","1076","canvas-keyboard-response","457","738189","0.0-1.0-0.228","j","false","20","true","response","true",""
"","null","html-keyboard-response","458","739691","0.0-1.0-1.228","null","","","","","","Correct!"
"","741","canvas-keyboard-response","459","740933","0.0-1.0-0.229","j","true","20","true","response","false",""
"","null","html-keyboard-response","460","742435","0.0-1.0-1.229","null","","","","","","Wrong"
"","1469","canvas-keyboard-response","461","744406","0.0-1.0-0.230","j","false","20","true","response","true",""
"","null","html-keyboard-response","462","745907","0.0-1.0-1.230","null","","","","","","Correct!"
"","813","canvas-keyboard-response","463","747222","0.0-1.0-0.231","j","false","20","false","response","true",""
"","null","html-keyboard-response","464","748723","0.0-1.0-1.231","null","","","","","","Correct!"
"","1006","canvas-keyboard-response","465","750230","0.0-1.0-0.232","j","false","40","true","response","true",""
"","null","html-keyboard-response","466","751733","0.0-1.0-1.232","null","","","","","","Correct!"
"","757","canvas-keyboard-response","467","752990","0.0-1.0-0.233","f","true","20","true","response","true",""
"","null","html-keyboard-response","468","754492","0.0-1.0-1.233","null","","","","","","Correct!"
"","606","canvas-keyboard-response","469","755599","0.0-1.0-0.234","f","true","40","false","response","true",""
"","null","html-keyboard-response","470","757101","0.0-1.0-1.234","null","","","","","","Correct!"
"","942","canvas-keyboard-response","471","758543","0.0-1.0-0.235","f","true","20","false","response","true",""
"","null","html-keyboard-response","472","760046","0.0-1.0-1.235","null","","","","","","Correct!"
"","564","canvas-keyboard-response","473","761111","0.0-1.0-0.236","f","true","30","false","response","true",""
"","null","html-keyboard-response","474","762614","0.0-1.0-1.236","null","","","","","","Correct!"
"","1124","canvas-keyboard-response","475","764239","0.0-1.0-0.237","f","true","30","true","response","true",""
"","null","html-keyboard-response","476","765740","0.0-1.0-1.237","null","","","","","","Correct!"
"","830","canvas-keyboard-response","477","767071","0.0-1.0-0.238","j","false","20","false","response","true",""
"","null","html-keyboard-response","478","768572","0.0-1.0-1.238","null","","","","","","Correct!"
"","1758","canvas-keyboard-response","479","770832","0.0-1.0-0.239","f","true","40","true","response","true",""
"","null","html-keyboard-response","480","772334","0.0-1.0-1.239","null","","","","","","Correct!"
"","645","canvas-keyboard-response","481","773483","0.0-1.0-0.240","f","true","10","false","response","true",""
"","null","html-keyboard-response","482","774984","0.0-1.0-1.240","null","","","","","","Correct!"
"","1323","canvas-keyboard-response","483","776809","0.0-1.0-0.241","f","true","40","true","response","true",""
"","null","html-keyboard-response","484","778310","0.0-1.0-1.241","null","","","","","","Correct!"
"","598","canvas-keyboard-response","485","779409","0.0-1.0-0.242","f","true","10","false","response","true",""
"","null","html-keyboard-response","486","780910","0.0-1.0-1.242","null","","","","","","Correct!"
"","1325","canvas-keyboard-response","487","782737","0.0-1.0-0.243","j","false","20","true","response","true",""
"","null","html-keyboard-response","488","784239","0.0-1.0-1.243","null","","","","","","Correct!"
"","1021","canvas-keyboard-response","489","785761","0.0-1.0-0.244","f","true","40","false","response","true",""
"","null","html-keyboard-response","490","787264","0.0-1.0-1.244","null","","","","","","Correct!"
"","852","canvas-keyboard-response","491","788618","0.0-1.0-0.245","j","false","40","false","response","true",""
"","null","html-keyboard-response","492","790119","0.0-1.0-1.245","null","","","","","","Correct!"
"","669","canvas-keyboard-response","493","791290","0.0-1.0-0.246","f","true","30","false","response","true",""
"","null","html-keyboard-response","494","792791","0.0-1.0-1.246","null","","","","","","Correct!"
"","949","canvas-keyboard-response","495","794242","0.0-1.0-0.247","f","true","10","false","response","true",""
"","null","html-keyboard-response","496","795745","0.0-1.0-1.247","null","","","","","","Correct!"
"","540","canvas-keyboard-response","497","796786","0.0-1.0-0.248","f","true","40","false","response","true",""
"","null","html-keyboard-response","498","798289","0.0-1.0-1.248","null","","","","","","Correct!"
"","1029","canvas-keyboard-response","499","799818","0.0-1.0-0.249","f","true","10","true","response","true",""
"","null","html-keyboard-response","500","801321","0.0-1.0-1.249","null","","","","","","Correct!"
"","1132","canvas-keyboard-response","501","802955","0.0-1.0-0.250","f","true","30","true","response","true",""
"","null","html-keyboard-response","502","804456","0.0-1.0-1.250","null","","","","","","Correct!"
"","574","canvas-keyboard-response","503","805531","0.0-1.0-0.251","f","true","40","false","response","true",""
"","null","html-keyboard-response","504","807033","0.0-1.0-1.251","null","","","","","","Correct!"
"","574","canvas-keyboard-response","505","808107","0.0-1.0-0.252","j","false","10","false","response","true",""
"","null","html-keyboard-response","506","809610","0.0-1.0-1.252","null","","","","","","Correct!"
"","580","canvas-keyboard-response","507","810692","0.0-1.0-0.253","f","true","40","false","response","true",""
"","null","html-keyboard-response","508","812195","0.0-1.0-1.253","null","","","","","","Correct!"
"","964","canvas-keyboard-response","509","813659","0.0-1.0-0.254","j","false","20","true","response","true",""
"","null","html-keyboard-response","510","815161","0.0-1.0-1.254","null","","","","","","Correct!"
"","629","canvas-keyboard-response","511","816292","0.0-1.0-0.255","f","true","20","true","response","true",""
"","null","html-keyboard-response","512","817794","0.0-1.0-1.255","null","","","","","","Correct!"
"","509","canvas-keyboard-response","513","818804","0.0-1.0-0.256","j","false","10","false","response","true",""
"","null","html-keyboard-response","514","820306","0.0-1.0-1.256","null","","","","","","Correct!"
"","670","canvas-keyboard-response","515","821476","0.0-1.0-0.257","j","false","40","false","response","true",""
"","null","html-keyboard-response","516","822979","0.0-1.0-1.257","null","","","","","","Correct!"
"","581","canvas-keyboard-response","517","824060","0.0-1.0-0.258","f","true","20","false","response","true",""
"","null","html-keyboard-response","518","825561","0.0-1.0-1.258","null","","","","","","Correct!"
"","726","canvas-keyboard-response","519","826789","0.0-1.0-0.259","j","false","30","false","response","true",""
"","null","html-keyboard-response","520","828290","0.0-1.0-1.259","null","","","","","","Correct!"
"","525","canvas-keyboard-response","521","829317","0.0-1.0-0.260","j","false","40","false","response","true",""
"","null","html-keyboard-response","522","830819","0.0-1.0-1.260","null","","","","","","Correct!"
"","493","canvas-keyboard-response","523","831813","0.0-1.0-0.261","j","false","10","false","response","true",""
"","null","html-keyboard-response","524","833315","0.0-1.0-1.261","null","","","","","","Correct!"
"","517","canvas-keyboard-response","525","834334","0.0-1.0-0.262","j","false","30","false","response","true",""
"","null","html-keyboard-response","526","835835","0.0-1.0-1.262","null","","","","","","Correct!"
"","974","canvas-keyboard-response","527","837310","0.0-1.0-0.263","f","true","20","true","response","true",""
"","null","html-keyboard-response","528","838810","0.0-1.0-1.263","null","","","","","","Correct!"
"","1774","canvas-keyboard-response","529","841086","0.0-1.0-0.264","j","false","30","true","response","true",""
"","null","html-keyboard-response","530","842588","0.0-1.0-1.264","null","","","","","","Correct!"
"","1422","canvas-keyboard-response","531","844510","0.0-1.0-0.265","j","true","30","true","response","false",""
"","null","html-keyboard-response","532","846011","0.0-1.0-1.265","null","","","","","","Wrong"
"","998","canvas-keyboard-response","533","847511","0.0-1.0-0.266","j","false","40","true","response","true",""
"","null","html-keyboard-response","534","849012","0.0-1.0-1.266","null","","","","","","Correct!"
"","973","canvas-keyboard-response","535","850487","0.0-1.0-0.267","f","true","30","true","response","true",""
"","null","html-keyboard-response","536","851990","0.0-1.0-1.267","null","","","","","","Correct!"
"","572","canvas-keyboard-response","537","853063","0.0-1.0-0.268","f","true","30","false","response","true",""
"","null","html-keyboard-response","538","854565","0.0-1.0-1.268","null","","","","","","Correct!"
"","1022","canvas-keyboard-response","539","856087","0.0-1.0-0.269","j","false","20","true","response","true",""
"","null","html-keyboard-response","540","857590","0.0-1.0-1.269","null","","","","","","Correct!"
"","933","canvas-keyboard-response","541","859023","0.0-1.0-0.270","f","false","20","true","response","false",""
"","null","html-keyboard-response","542","860525","0.0-1.0-1.270","null","","","","","","Wrong"
"","837","canvas-keyboard-response","543","861864","0.0-1.0-0.271","j","false","20","true","response","true",""
"","null","html-keyboard-response","544","863366","0.0-1.0-1.271","null","","","","","","Correct!"
"","573","canvas-keyboard-response","545","864440","0.0-1.0-0.272","j","false","10","true","response","true",""
"","null","html-keyboard-response","546","865941","0.0-1.0-1.272","null","","","","","","Correct!"
"","686","canvas-keyboard-response","547","867128","0.0-1.0-0.273","j","false","20","false","response","true",""
"","null","html-keyboard-response","548","868629","0.0-1.0-1.273","null","","","","","","Correct!"
"","606","canvas-keyboard-response","549","869737","0.0-1.0-0.274","j","false","40","false","response","true",""
"","null","html-keyboard-response","550","871239","0.0-1.0-1.274","null","","","","","","Correct!"
"","643","canvas-keyboard-response","551","872385","0.0-1.0-0.275","f","true","30","false","response","true",""
"","null","html-keyboard-response","552","873886","0.0-1.0-1.275","null","","","","","","Correct!"
"","797","canvas-keyboard-response","553","875185","0.0-1.0-0.276","f","true","40","false","response","true",""
"","null","html-keyboard-response","554","876688","0.0-1.0-1.276","null","","","","","","Correct!"
"","652","canvas-keyboard-response","555","877841","0.0-1.0-0.277","f","true","40","false","response","true",""
"","null","html-keyboard-response","556","879343","0.0-1.0-1.277","null","","","","","","Correct!"
"","1958","canvas-keyboard-response","557","881802","0.0-1.0-0.278","f","true","30","true","response","true",""
"","null","html-keyboard-response","558","883305","0.0-1.0-1.278","null","","","","","","Correct!"
"","812","canvas-keyboard-response","559","884618","0.0-1.0-0.279","f","true","10","true","response","true",""
"","null","html-keyboard-response","560","886120","0.0-1.0-1.279","null","","","","","","Correct!"
"","1427","canvas-keyboard-response","561","888050","0.0-1.0-0.280","j","false","40","true","response","true",""
"","null","html-keyboard-response","562","889551","0.0-1.0-1.280","null","","","","","","Correct!"
"","1782","canvas-keyboard-response","563","891834","0.0-1.0-0.281","j","false","40","true","response","true",""
"","null","html-keyboard-response","564","893336","0.0-1.0-1.281","null","","","","","","Correct!"
"","589","canvas-keyboard-response","565","894427","0.0-1.0-0.282","j","false","10","false","response","true",""
"","null","html-keyboard-response","566","895928","0.0-1.0-1.282","null","","","","","","Correct!"
"","566","canvas-keyboard-response","567","896995","0.0-1.0-0.283","j","false","30","false","response","true",""
"","null","html-keyboard-response","568","898498","0.0-1.0-1.283","null","","","","","","Correct!"
"","685","canvas-keyboard-response","569","899683","0.0-1.0-0.284","j","false","40","false","response","true",""
"","null","html-keyboard-response","570","901186","0.0-1.0-1.284","null","","","","","","Correct!"
"","1461","canvas-keyboard-response","571","903147","0.0-1.0-0.285","j","false","20","true","response","true",""
"","null","html-keyboard-response","572","904650","0.0-1.0-1.285","null","","","","","","Correct!"
"","902","canvas-keyboard-response","573","906052","0.0-1.0-0.286","f","true","30","false","response","true",""
"","null","html-keyboard-response","574","907553","0.0-1.0-1.286","null","","","","","","Correct!"
"","981","canvas-keyboard-response","575","909036","0.0-1.0-0.287","j","false","30","true","response","true",""
"","null","html-keyboard-response","576","910538","0.0-1.0-1.287","null","","","","","","Correct!"
"","1533","canvas-keyboard-response","577","912573","0.0-1.0-0.288","j","false","40","true","response","true",""
"","null","html-keyboard-response","578","914074","0.0-1.0-1.288","null","","","","","","Correct!"
"","694","canvas-keyboard-response","579","915269","0.0-1.0-0.289","j","false","10","false","response","true",""
"","null","html-keyboard-response","580","916770","0.0-1.0-1.289","null","","","","","","Correct!"
"","1750","canvas-keyboard-response","581","919021","0.0-1.0-0.290","f","true","40","true","response","true",""
"","null","html-keyboard-response","582","920523","0.0-1.0-1.290","null","","","","","","Correct!"
"","725","canvas-keyboard-response","583","921749","0.0-1.0-0.291","j","false","40","false","response","true",""
"","null","html-keyboard-response","584","923252","0.0-1.0-1.291","null","","","","","","Correct!"
"","1012","canvas-keyboard-response","585","924765","0.0-1.0-0.292","j","false","40","true","response","true",""
"","null","html-keyboard-response","586","926267","0.0-1.0-1.292","null","","","","","","Correct!"
"","550","canvas-keyboard-response","587","927317","0.0-1.0-0.293","f","true","30","false","response","true",""
"","null","html-keyboard-response","588","928819","0.0-1.0-1.293","null","","","","","","Correct!"
"","550","canvas-keyboard-response","589","929870","0.0-1.0-0.294","j","false","30","false","response","true",""
"","null","html-keyboard-response","590","931372","0.0-1.0-1.294","null","","","","","","Correct!"
"","772","canvas-keyboard-response","591","932646","0.0-1.0-0.295","j","false","30","false","response","true",""
"","null","html-keyboard-response","592","934148","0.0-1.0-1.295","null","","","","","","Correct!"
"","685","canvas-keyboard-response","593","935334","0.0-1.0-0.296","j","false","20","false","response","true",""
"","null","html-keyboard-response","594","936836","0.0-1.0-1.296","null","","","","","","Correct!"
"","1365","canvas-keyboard-response","595","938702","0.0-1.0-0.297","j","true","20","true","response","false",""
"","null","html-keyboard-response","596","940205","0.0-1.0-1.297","null","","","","","","Wrong"
"","836","canvas-keyboard-response","597","941543","0.0-1.0-0.298","f","true","10","false","response","true",""
"","null","html-keyboard-response","598","943045","0.0-1.0-1.298","null","","","","","","Correct!"
"","686","canvas-keyboard-response","599","944231","0.0-1.0-0.299","f","true","30","true","response","true",""
"","null","html-keyboard-response","600","945734","0.0-1.0-1.299","null","","","","","","Correct!"
"","572","canvas-keyboard-response","601","946807","0.0-1.0-0.300","f","true","30","false","response","true",""
"","null","html-keyboard-response","602","948309","0.0-1.0-1.300","null","","","","","","Correct!"
"","653","canvas-keyboard-response","603","949464","0.0-1.0-0.301","f","true","20","false","response","true",""
"","null","html-keyboard-response","604","950965","0.0-1.0-1.301","null","","","","","","Correct!"
"","766","canvas-keyboard-response","605","952232","0.0-1.0-0.302","f","true","30","false","response","true",""
"","null","html-keyboard-response","606","953733","0.0-1.0-1.302","null","","","","","","Correct!"
"","925","canvas-keyboard-response","607","955160","0.0-1.0-0.303","f","true","20","true","response","true",""
"","null","html-keyboard-response","608","956662","0.0-1.0-1.303","null","","","","","","Correct!"
"","1373","canvas-keyboard-response","609","958536","0.0-1.0-0.304","j","false","20","true","response","true",""
"","null","html-keyboard-response","610","960037","0.0-1.0-1.304","null","","","","","","Correct!"
"","1254","canvas-keyboard-response","611","961792","0.0-1.0-0.305","f","false","20","false","response","false",""
"","null","html-keyboard-response","612","963294","0.0-1.0-1.305","null","","","","","","Wrong"
"","2006","canvas-keyboard-response","613","965801","0.0-1.0-0.306","j","true","30","true","response","false",""
"","null","html-keyboard-response","614","967302","0.0-1.0-1.306","null","","","","","","Wrong<br><br><b>Work faster!</b>"
"","894","canvas-keyboard-response","615","968697","0.0-1.0-0.307","j","false","40","false","response","true",""
"","null","html-keyboard-response","616","970199","0.0-1.0-1.307","null","","","","","","Correct!"
"","1222","canvas-keyboard-response","617","971922","0.0-1.0-0.308","f","true","30","true","response","true",""
"","null","html-keyboard-response","618","973424","0.0-1.0-1.308","null","","","","","","Correct!"
"","700","canvas-keyboard-response","619","974625","0.0-1.0-0.309","j","true","10","true","response","false",""
"","null","html-keyboard-response","620","976127","0.0-1.0-1.309","null","","","","","","Wrong"
"","1421","canvas-keyboard-response","621","978050","0.0-1.0-0.310","j","false","10","true","response","true",""
"","null","html-keyboard-response","622","979552","0.0-1.0-1.310","null","","","","","","Correct!"
"","629","canvas-keyboard-response","623","980682","0.0-1.0-0.311","f","true","10","true","response","true",""
"","null","html-keyboard-response","624","982184","0.0-1.0-1.311","null","","","","","","Correct!"
"","749","canvas-keyboard-response","625","983434","0.0-1.0-0.312","f","true","10","true","response","true",""
"","null","html-keyboard-response","626","984937","0.0-1.0-1.312","null","","","","","","Correct!"
"","1741","canvas-keyboard-response","627","987179","0.0-1.0-0.313","j","true","20","false","response","false",""
"","null","html-keyboard-response","628","988680","0.0-1.0-1.313","null","","","","","","Wrong"
"","1838","canvas-keyboard-response","629","991019","0.0-1.0-0.314","j","false","30","true","response","true",""
"","null","html-keyboard-response","630","992521","0.0-1.0-1.314","null","","","","","","Correct!"
"","685","canvas-keyboard-response","631","993707","0.0-1.0-0.315","j","false","20","false","response","true",""
"","null","html-keyboard-response","632","995208","0.0-1.0-1.315","null","","","","","","Correct!"
"","606","canvas-keyboard-response","633","996315","0.0-1.0-0.316","j","false","30","false","response","true",""
"","null","html-keyboard-response","634","997817","0.0-1.0-1.316","null","","","","","","Correct!"
"","1621","canvas-keyboard-response","635","999940","0.0-1.0-0.317","j","true","40","true","response","false",""
"","null","html-keyboard-response","636","1001442","0.0-1.0-1.317","null","","","","","","Wrong"
"","1509","canvas-keyboard-response","637","1003452","0.0-1.0-0.318","f","true","40","true","response","true",""
"","null","html-keyboard-response","638","1004954","0.0-1.0-1.318","null","","","","","","Correct!"
"","1060","canvas-keyboard-response","639","1006516","0.0-1.0-0.319","f","true","20","true","response","true",""
"","null","html-keyboard-response","640","1008018","0.0-1.0-1.319","null","","","","","","Correct!"
"","26718","html-button-response","641","1035241","0.0-2.0","0","","","","","","<p><b>Results</b></p>
          <p>In the table, you can see mean response times for different search conditions:</p>
          <table><tr><th>Search type</th><th>Set size</th><th>Mean RT present</th><th>Mean RT absent</th></tr><tr><td>Feature</td><td>10</td><td>743.65</td><td>679.35</td></tr><tr><td>Feature</td><td>20</td><td>709.4</td><td>818.05</td></tr><tr><td>Feature</td><td>30</td><td>703.4</td><td>960.8</td></tr><tr><td>Feature</td><td>40</td><td>644.7</td><td>783.85</td></tr><tr><td>Conjunction</td><td>10</td><td>982.4</td><td>851.55</td></tr><tr><td>Conjunction</td><td>20</td><td>905.2</td><td>1182.7</td></tr><tr><td>Conjunction</td><td>30</td><td>1195.9</td><td>1596.5</td></tr><tr><td>Conjunction</td><td>40</td><td>1593.3</td><td>1624.85</td></tr></table>
          <p>Press any key to <b>save</b> the data and complete the experiment. Thank you!</p>"
