"view_history","rt","trial_type","trial_index","time_elapsed","internal_node_id","response","present","setSize","conjuction","task","correct","stimulus"
"[{""page_index"":0,""viewing_time"":16685},{""page_index"":1,""viewing_time"":14996}]","31682","instructions","0","31685","0.0-0.0","","","","","","",""
"","5099","canvas-keyboard-response","1","37302","0.0-1.0-0.0","j","false","30","true","response","true",""
"","null","html-keyboard-response","2","38814","0.0-1.0-1.0","null","","","","","","Correct!<br><br><b>Work faster!</b>"
"","2295","canvas-keyboard-response","3","41615","0.0-1.0-0.1","f","true","30","true","response","true",""
"","null","html-keyboard-response","4","43126","0.0-1.0-1.1","null","","","","","","Correct!<br><br><b>Work faster!</b>"
"","2237","canvas-keyboard-response","5","45868","0.0-1.0-0.2","j","false","40","true","response","true",""
"","null","html-keyboard-response","6","47383","0.0-1.0-1.2","null","","","","","","Correct!<br><br><b>Work faster!</b>"
"","2164","canvas-keyboard-response","7","50051","0.0-1.0-0.3","j","false","30","true","response","true",""
"","null","html-keyboard-response","8","51566","0.0-1.0-1.3","null","","","","","","Correct!<br><br><b>Work faster!</b>"
"","879","canvas-keyboard-response","9","52950","0.0-1.0-0.4","f","true","30","false","response","true",""
"","null","html-keyboard-response","10","54462","0.0-1.0-1.4","null","","","","","","Correct!"
"","899","canvas-keyboard-response","11","55865","0.0-1.0-0.5","f","true","10","false","response","true",""
"","null","html-keyboard-response","12","57374","0.0-1.0-1.5","null","","","","","","Correct!"
"","2223","canvas-keyboard-response","13","60101","0.0-1.0-0.6","j","false","30","true","response","true",""
"","null","html-keyboard-response","14","61614","0.0-1.0-1.6","null","","","","","","Correct!<br><br><b>Work faster!</b>"
"","846","canvas-keyboard-response","15","62966","0.0-1.0-0.7","f","true","20","false","response","true",""
"","null","html-keyboard-response","16","64478","0.0-1.0-1.7","null","","","","","","Correct!"
"","914","canvas-keyboard-response","17","65897","0.0-1.0-0.8","j","false","10","true","response","true",""
"","null","html-keyboard-response","18","67406","0.0-1.0-1.8","null","","","","","","Correct!"
"","932","canvas-keyboard-response","19","68843","0.0-1.0-0.9","f","true","40","false","response","true",""
"","null","html-keyboard-response","20","70358","0.0-1.0-1.9","null","","","","","","Correct!"
"","1059","canvas-keyboard-response","21","71922","0.0-1.0-0.10","j","false","10","true","response","true",""
"","null","html-keyboard-response","22","73438","0.0-1.0-1.10","null","","","","","","Correct!"
"","1074","canvas-keyboard-response","23","75017","0.0-1.0-0.11","f","true","30","true","response","true",""
"","null","html-keyboard-response","24","76526","0.0-1.0-1.11","null","","","","","","Correct!"
"","1277","canvas-keyboard-response","25","78307","0.0-1.0-0.12","f","true","40","true","response","true",""
"","null","html-keyboard-response","26","79822","0.0-1.0-1.12","null","","","","","","Correct!"
"","1049","canvas-keyboard-response","27","81376","0.0-1.0-0.13","j","false","20","true","response","true",""
"","null","html-keyboard-response","28","82886","0.0-1.0-1.13","null","","","","","","Correct!"
"","877","canvas-keyboard-response","29","84268","0.0-1.0-0.14","f","true","10","true","response","true",""
"","null","html-keyboard-response","30","85782","0.0-1.0-1.14","null","","","","","","Correct!"
"","1630","canvas-keyboard-response","31","87917","0.0-1.0-0.15","f","true","20","true","response","true",""
"","null","html-keyboard-response","32","89430","0.0-1.0-1.15","null","","","","","","Correct!"
"","3406","canvas-keyboard-response","33","93341","0.0-1.0-0.16","j","false","40","false","response","true",""
"","null","html-keyboard-response","34","94854","0.0-1.0-1.16","null","","","","","","Correct!<br><br><b>Work faster!</b>"
"","2411","canvas-keyboard-response","35","97770","0.0-1.0-0.17","j","false","40","false","response","true",""
"","null","html-keyboard-response","36","99286","0.0-1.0-1.17","null","","","","","","Correct!<br><br><b>Work faster!</b>"
"","1275","canvas-keyboard-response","37","101066","0.0-1.0-0.18","j","false","10","false","response","true",""
"","null","html-keyboard-response","38","102582","0.0-1.0-1.18","null","","","","","","Correct!"
"","2172","canvas-keyboard-response","39","105259","0.0-1.0-0.19","f","true","40","true","response","true",""
"","null","html-keyboard-response","40","106774","0.0-1.0-1.19","null","","","","","","Correct!<br><br><b>Work faster!</b>"
"","2499","canvas-keyboard-response","41","109778","0.0-1.0-0.20","f","true","40","true","response","true",""
"","null","html-keyboard-response","42","111294","0.0-1.0-1.20","null","","","","","","Correct!<br><br><b>Work faster!</b>"
"","1806","canvas-keyboard-response","43","113605","0.0-1.0-0.21","j","false","40","true","response","true",""
"","null","html-keyboard-response","44","115118","0.0-1.0-1.21","null","","","","","","Correct!"
"","1057","canvas-keyboard-response","45","116681","0.0-1.0-0.22","f","true","20","false","response","true",""
"","null","html-keyboard-response","46","118190","0.0-1.0-1.22","null","","","","","","Correct!"
"","1035","canvas-keyboard-response","47","119730","0.0-1.0-0.23","f","true","40","false","response","true",""
"","null","html-keyboard-response","48","121238","0.0-1.0-1.23","null","","","","","","Correct!"
"","1507","canvas-keyboard-response","49","123249","0.0-1.0-0.24","j","false","20","false","response","true",""
"","null","html-keyboard-response","50","124758","0.0-1.0-1.24","null","","","","","","Correct!"
"","1570","canvas-keyboard-response","51","126833","0.0-1.0-0.25","f","true","20","true","response","true",""
"","null","html-keyboard-response","52","128342","0.0-1.0-1.25","null","","","","","","Correct!"
"","2149","canvas-keyboard-response","53","130996","0.0-1.0-0.26","j","false","40","false","response","true",""
"","null","html-keyboard-response","54","132510","0.0-1.0-1.26","null","","","","","","Correct!<br><br><b>Work faster!</b>"
"","763","canvas-keyboard-response","55","133778","0.0-1.0-0.27","f","true","40","false","response","true",""
"","null","html-keyboard-response","56","135294","0.0-1.0-1.27","null","","","","","","Correct!"
"","1578","canvas-keyboard-response","57","137377","0.0-1.0-0.28","f","true","20","true","response","true",""
"","null","html-keyboard-response","58","138886","0.0-1.0-1.28","null","","","","","","Correct!"
"","1418","canvas-keyboard-response","59","140809","0.0-1.0-0.29","j","false","30","false","response","true",""
"","null","html-keyboard-response","60","142318","0.0-1.0-1.29","null","","","","","","Correct!"
"","1004","canvas-keyboard-response","61","143826","0.0-1.0-0.30","j","false","30","false","response","true",""
"","null","html-keyboard-response","62","145342","0.0-1.0-1.30","null","","","","","","Correct!"
"","1984","canvas-keyboard-response","63","147830","0.0-1.0-0.31","j","false","40","true","response","true",""
"","null","html-keyboard-response","64","149342","0.0-1.0-1.31","null","","","","","","Correct!"
"","1283","canvas-keyboard-response","65","151130","0.0-1.0-0.32","f","true","40","false","response","true",""
"","null","html-keyboard-response","66","152646","0.0-1.0-1.32","null","","","","","","Correct!"
"","942","canvas-keyboard-response","67","154093","0.0-1.0-0.33","f","true","30","true","response","true",""
"","null","html-keyboard-response","68","155606","0.0-1.0-1.33","null","","","","","","Correct!"
"","883","canvas-keyboard-response","69","156994","0.0-1.0-0.34","f","true","20","false","response","true",""
"","null","html-keyboard-response","70","158502","0.0-1.0-1.34","null","","","","","","Correct!"
"","1568","canvas-keyboard-response","71","160575","0.0-1.0-0.35","j","false","30","false","response","true",""
"","null","html-keyboard-response","72","162086","0.0-1.0-1.35","null","","","","","","Correct!"
"","1160","canvas-keyboard-response","73","163750","0.0-1.0-0.36","f","true","40","true","response","true",""
"","null","html-keyboard-response","74","165262","0.0-1.0-1.36","null","","","","","","Correct!"
"","963","canvas-keyboard-response","75","166730","0.0-1.0-0.37","j","false","10","true","response","true",""
"","null","html-keyboard-response","76","168246","0.0-1.0-1.37","null","","","","","","Correct!"
"","1080","canvas-keyboard-response","77","169830","0.0-1.0-0.38","f","true","20","true","response","true",""
"","null","html-keyboard-response","78","171342","0.0-1.0-1.38","null","","","","","","Correct!"
"","1240","canvas-keyboard-response","79","173086","0.0-1.0-0.39","j","false","20","true","response","true",""
"","null","html-keyboard-response","80","174598","0.0-1.0-1.39","null","","","","","","Correct!"
"","768","canvas-keyboard-response","81","175870","0.0-1.0-0.40","j","false","10","true","response","true",""
"","null","html-keyboard-response","82","177382","0.0-1.0-1.40","null","","","","","","Correct!"
"","756","canvas-keyboard-response","83","178642","0.0-1.0-0.41","f","true","20","false","response","true",""
"","null","html-keyboard-response","84","180158","0.0-1.0-1.41","null","","","","","","Correct!"
"","915","canvas-keyboard-response","85","181578","0.0-1.0-0.42","j","false","20","false","response","true",""
"","null","html-keyboard-response","86","183094","0.0-1.0-1.42","null","","","","","","Correct!"
"","898","canvas-keyboard-response","87","184496","0.0-1.0-0.43","f","true","30","false","response","true",""
"","null","html-keyboard-response","88","186006","0.0-1.0-1.43","null","","","","","","Correct!"
"","1325","canvas-keyboard-response","89","187836","0.0-1.0-0.44","j","false","30","true","response","true",""
"","null","html-keyboard-response","90","189350","0.0-1.0-1.44","null","","","","","","Correct!"
"","1339","canvas-keyboard-response","91","191193","0.0-1.0-0.45","j","false","30","false","response","true",""
"","null","html-keyboard-response","92","192702","0.0-1.0-1.45","null","","","","","","Correct!"
"","797","canvas-keyboard-response","93","194003","0.0-1.0-0.46","f","true","20","false","response","true",""
"","null","html-keyboard-response","94","195518","0.0-1.0-1.46","null","","","","","","Correct!"
"","763","canvas-keyboard-response","95","196785","0.0-1.0-0.47","j","false","10","true","response","true",""
"","null","html-keyboard-response","96","198294","0.0-1.0-1.47","null","","","","","","Correct!"
"","1620","canvas-keyboard-response","97","200419","0.0-1.0-0.48","j","false","40","true","response","true",""
"","null","html-keyboard-response","98","201934","0.0-1.0-1.48","null","","","","","","Correct!"
"","835","canvas-keyboard-response","99","203273","0.0-1.0-0.49","f","true","10","true","response","true",""
"","null","html-keyboard-response","100","204782","0.0-1.0-1.49","null","","","","","","Correct!"
"","822","canvas-keyboard-response","101","206108","0.0-1.0-0.50","j","false","10","true","response","true",""
"","null","html-keyboard-response","102","207622","0.0-1.0-1.50","null","","","","","","Correct!"
"","1326","canvas-keyboard-response","103","209453","0.0-1.0-0.51","f","true","10","true","response","true",""
"","null","html-keyboard-response","104","210966","0.0-1.0-1.51","null","","","","","","Correct!"
"","972","canvas-keyboard-response","105","212443","0.0-1.0-0.52","j","false","20","true","response","true",""
"","null","html-keyboard-response","106","213958","0.0-1.0-1.52","null","","","","","","Correct!"
"","2600","canvas-keyboard-response","107","217062","0.0-1.0-0.53","j","false","40","true","response","true",""
"","null","html-keyboard-response","108","218574","0.0-1.0-1.53","null","","","","","","Correct!<br><br><b>Work faster!</b>"
"","1525","canvas-keyboard-response","109","220604","0.0-1.0-0.54","j","false","30","false","response","true",""
"","null","html-keyboard-response","110","222118","0.0-1.0-1.54","null","","","","","","Correct!"
"","723","canvas-keyboard-response","111","223346","0.0-1.0-0.55","f","true","20","false","response","true",""
"","null","html-keyboard-response","112","224862","0.0-1.0-1.55","null","","","","","","Correct!"
"","976","canvas-keyboard-response","113","226342","0.0-1.0-0.56","j","false","10","false","response","true",""
"","null","html-keyboard-response","114","227854","0.0-1.0-1.56","null","","","","","","Correct!"
"","850","canvas-keyboard-response","115","229209","0.0-1.0-0.57","j","false","30","false","response","true",""
"","null","html-keyboard-response","116","230718","0.0-1.0-1.57","null","","","","","","Correct!"
"","750","canvas-keyboard-response","117","231972","0.0-1.0-0.58","f","true","20","false","response","true",""
"","null","html-keyboard-response","118","233486","0.0-1.0-1.58","null","","","","","","Correct!"
"","1525","canvas-keyboard-response","119","235515","0.0-1.0-0.59","f","true","10","true","response","true",""
"","null","html-keyboard-response","120","237030","0.0-1.0-1.59","null","","","","","","Correct!"
"","1184","canvas-keyboard-response","121","238719","0.0-1.0-0.60","f","true","40","false","response","true",""
"","null","html-keyboard-response","122","240230","0.0-1.0-1.60","null","","","","","","Correct!"
"","780","canvas-keyboard-response","123","241515","0.0-1.0-0.61","f","true","40","false","response","true",""
"","null","html-keyboard-response","124","243030","0.0-1.0-1.61","null","","","","","","Correct!"
"","1168","canvas-keyboard-response","125","244703","0.0-1.0-0.62","j","false","10","false","response","true",""
"","null","html-keyboard-response","126","246214","0.0-1.0-1.62","null","","","","","","Correct!"
"","716","canvas-keyboard-response","127","247435","0.0-1.0-0.63","f","true","10","false","response","true",""
"","null","html-keyboard-response","128","248950","0.0-1.0-1.63","null","","","","","","Correct!"
"","789","canvas-keyboard-response","129","250243","0.0-1.0-0.64","f","true","20","false","response","true",""
"","null","html-keyboard-response","130","251758","0.0-1.0-1.64","null","","","","","","Correct!"
"","1859","canvas-keyboard-response","131","254122","0.0-1.0-0.65","j","false","40","true","response","true",""
"","null","html-keyboard-response","132","255638","0.0-1.0-1.65","null","","","","","","Correct!"
"","720","canvas-keyboard-response","133","256862","0.0-1.0-0.66","f","true","10","false","response","true",""
"","null","html-keyboard-response","134","258374","0.0-1.0-1.66","null","","","","","","Correct!"
"","829","canvas-keyboard-response","135","259707","0.0-1.0-0.67","j","false","10","false","response","true",""
"","null","html-keyboard-response","136","261222","0.0-1.0-1.67","null","","","","","","Correct!"
"","1833","canvas-keyboard-response","137","263560","0.0-1.0-0.68","j","false","30","false","response","true",""
"","null","html-keyboard-response","138","265070","0.0-1.0-1.68","null","","","","","","Correct!"
"","1297","canvas-keyboard-response","139","266871","0.0-1.0-0.69","j","false","10","false","response","true",""
"","null","html-keyboard-response","140","268382","0.0-1.0-1.69","null","","","","","","Correct!"
"","634","canvas-keyboard-response","141","269521","0.0-1.0-0.70","f","true","20","false","response","true",""
"","null","html-keyboard-response","142","271030","0.0-1.0-1.70","null","","","","","","Correct!"
"","850","canvas-keyboard-response","143","272385","0.0-1.0-0.71","j","false","20","false","response","true",""
"","null","html-keyboard-response","144","273894","0.0-1.0-1.71","null","","","","","","Correct!"
"","1115","canvas-keyboard-response","145","275514","0.0-1.0-0.72","j","false","20","true","response","true",""
"","null","html-keyboard-response","146","277030","0.0-1.0-1.72","null","","","","","","Correct!"
"","1131","canvas-keyboard-response","147","278666","0.0-1.0-0.73","j","false","10","true","response","true",""
"","null","html-keyboard-response","148","280182","0.0-1.0-1.73","null","","","","","","Correct!"
"","1533","canvas-keyboard-response","149","282220","0.0-1.0-0.74","j","false","30","true","response","true",""
"","null","html-keyboard-response","150","283734","0.0-1.0-1.74","null","","","","","","Correct!"
"","787","canvas-keyboard-response","151","285026","0.0-1.0-0.75","j","false","10","true","response","true",""
"","null","html-keyboard-response","152","286542","0.0-1.0-1.75","null","","","","","","Correct!"
"","710","canvas-keyboard-response","153","287757","0.0-1.0-0.76","j","false","10","false","response","true",""
"","null","html-keyboard-response","154","289270","0.0-1.0-1.76","null","","","","","","Correct!"
"","1272","canvas-keyboard-response","155","291046","0.0-1.0-0.77","f","true","30","true","response","true",""
"","null","html-keyboard-response","156","292558","0.0-1.0-1.77","null","","","","","","Correct!"
"","1494","canvas-keyboard-response","157","294557","0.0-1.0-0.78","f","true","40","true","response","true",""
"","null","html-keyboard-response","158","296070","0.0-1.0-1.78","null","","","","","","Correct!"
"","1055","canvas-keyboard-response","159","297630","0.0-1.0-0.79","j","false","20","true","response","true",""
"","null","html-keyboard-response","160","299142","0.0-1.0-1.79","null","","","","","","Correct!"
"","1428","canvas-keyboard-response","161","301075","0.0-1.0-0.80","j","false","40","false","response","true",""
"","null","html-keyboard-response","162","302590","0.0-1.0-1.80","null","","","","","","Correct!"
"","1038","canvas-keyboard-response","163","304133","0.0-1.0-0.81","j","false","20","true","response","true",""
"","null","html-keyboard-response","164","305646","0.0-1.0-1.81","null","","","","","","Correct!"
"","1039","canvas-keyboard-response","165","307190","0.0-1.0-0.82","f","true","20","true","response","true",""
"","null","html-keyboard-response","166","308702","0.0-1.0-1.82","null","","","","","","Correct!"
"","974","canvas-keyboard-response","167","310181","0.0-1.0-0.83","f","true","10","false","response","true",""
"","null","html-keyboard-response","168","311694","0.0-1.0-1.83","null","","","","","","Correct!"
"","951","canvas-keyboard-response","169","313150","0.0-1.0-0.84","j","false","20","false","response","true",""
"","null","html-keyboard-response","170","314662","0.0-1.0-1.84","null","","","","","","Correct!"
"","963","canvas-keyboard-response","171","316129","0.0-1.0-0.85","f","true","40","false","response","true",""
"","null","html-keyboard-response","172","317646","0.0-1.0-1.85","null","","","","","","Correct!"
"","2989","canvas-keyboard-response","173","321140","0.0-1.0-0.86","j","false","40","true","response","true",""
"","null","html-keyboard-response","174","322654","0.0-1.0-1.86","null","","","","","","Correct!<br><br><b>Work faster!</b>"
"","821","canvas-keyboard-response","175","323980","0.0-1.0-0.87","f","true","40","false","response","true",""
"","null","html-keyboard-response","176","325494","0.0-1.0-1.87","null","","","","","","Correct!"
"","982","canvas-keyboard-response","177","326981","0.0-1.0-0.88","f","true","30","true","response","true",""
"","null","html-keyboard-response","178","328494","0.0-1.0-1.88","null","","","","","","Correct!"
"","982","canvas-keyboard-response","179","329981","0.0-1.0-0.89","f","true","10","true","response","true",""
"","null","html-keyboard-response","180","331494","0.0-1.0-1.89","null","","","","","","Correct!"
"","911","canvas-keyboard-response","181","332910","0.0-1.0-0.90","f","true","30","true","response","true",""
"","null","html-keyboard-response","182","334422","0.0-1.0-1.90","null","","","","","","Correct!"
"","1147","canvas-keyboard-response","183","336074","0.0-1.0-0.91","j","false","30","true","response","true",""
"","null","html-keyboard-response","184","337590","0.0-1.0-1.91","null","","","","","","Correct!"
"","901","canvas-keyboard-response","185","338996","0.0-1.0-0.92","j","false","10","false","response","true",""
"","null","html-keyboard-response","186","340510","0.0-1.0-1.92","null","","","","","","Correct!"
"","703","canvas-keyboard-response","187","341718","0.0-1.0-0.93","f","true","40","false","response","true",""
"","null","html-keyboard-response","188","343230","0.0-1.0-1.93","null","","","","","","Correct!"
"","1496","canvas-keyboard-response","189","345231","0.0-1.0-0.94","j","false","30","false","response","true",""
"","null","html-keyboard-response","190","346742","0.0-1.0-1.94","null","","","","","","Correct!"
"","1532","canvas-keyboard-response","191","348778","0.0-1.0-0.95","j","false","30","true","response","true",""
"","null","html-keyboard-response","192","350294","0.0-1.0-1.95","null","","","","","","Correct!"
"","825","canvas-keyboard-response","193","351624","0.0-1.0-0.96","j","false","10","true","response","true",""
"","null","html-keyboard-response","194","353134","0.0-1.0-1.96","null","","","","","","Correct!"
"","875","canvas-keyboard-response","195","354513","0.0-1.0-0.97","j","false","40","false","response","true",""
"","null","html-keyboard-response","196","356030","0.0-1.0-1.97","null","","","","","","Correct!"
"","560","canvas-keyboard-response","197","357094","0.0-1.0-0.98","j","false","10","false","response","true",""
"","null","html-keyboard-response","198","358606","0.0-1.0-1.98","null","","","","","","Correct!"
"","1036","canvas-keyboard-response","199","360146","0.0-1.0-0.99","f","true","30","false","response","true",""
"","null","html-keyboard-response","200","361662","0.0-1.0-1.99","null","","","","","","Correct!"
"","830","canvas-keyboard-response","201","362997","0.0-1.0-0.100","j","false","20","true","response","true",""
"","null","html-keyboard-response","202","364510","0.0-1.0-1.100","null","","","","","","Correct!"
"","709","canvas-keyboard-response","203","365723","0.0-1.0-0.101","f","true","30","false","response","true",""
"","null","html-keyboard-response","204","367238","0.0-1.0-1.101","null","","","","","","Correct!"
"","1413","canvas-keyboard-response","205","369155","0.0-1.0-0.102","f","true","10","true","response","true",""
"","null","html-keyboard-response","206","370670","0.0-1.0-1.102","null","","","","","","Correct!"
"","1424","canvas-keyboard-response","207","372598","0.0-1.0-0.103","j","false","30","false","response","true",""
"","null","html-keyboard-response","208","374110","0.0-1.0-1.103","null","","","","","","Correct!"
"","759","canvas-keyboard-response","209","375374","0.0-1.0-0.104","j","false","30","false","response","true",""
"","null","html-keyboard-response","210","376886","0.0-1.0-1.104","null","","","","","","Correct!"
"","849","canvas-keyboard-response","211","378240","0.0-1.0-0.105","j","false","10","true","response","true",""
"","null","html-keyboard-response","212","379750","0.0-1.0-1.105","null","","","","","","Correct!"
"","765","canvas-keyboard-response","213","381020","0.0-1.0-0.106","j","false","40","false","response","true",""
"","null","html-keyboard-response","214","382534","0.0-1.0-1.106","null","","","","","","Correct!"
"","1374","canvas-keyboard-response","215","384413","0.0-1.0-0.107","f","true","10","true","response","true",""
"","null","html-keyboard-response","216","385926","0.0-1.0-1.107","null","","","","","","Correct!"
"","1884","canvas-keyboard-response","217","388315","0.0-1.0-0.108","f","true","40","true","response","true",""
"","null","html-keyboard-response","218","389830","0.0-1.0-1.108","null","","","","","","Correct!"
"","1030","canvas-keyboard-response","219","391364","0.0-1.0-0.109","f","true","20","false","response","true",""
"","null","html-keyboard-response","220","392878","0.0-1.0-1.109","null","","","","","","Correct!"
"","979","canvas-keyboard-response","221","394362","0.0-1.0-0.110","f","true","40","false","response","true",""
"","null","html-keyboard-response","222","395878","0.0-1.0-1.110","null","","","","","","Correct!"
"","873","canvas-keyboard-response","223","397256","0.0-1.0-0.111","j","false","40","false","response","true",""
"","null","html-keyboard-response","224","398766","0.0-1.0-1.111","null","","","","","","Correct!"
"","844","canvas-keyboard-response","225","400114","0.0-1.0-0.112","j","false","40","false","response","true",""
"","null","html-keyboard-response","226","401630","0.0-1.0-1.112","null","","","","","","Correct!"
"","690","canvas-keyboard-response","227","402824","0.0-1.0-0.113","j","false","20","false","response","true",""
"","null","html-keyboard-response","228","404334","0.0-1.0-1.113","null","","","","","","Correct!"
"","780","canvas-keyboard-response","229","405619","0.0-1.0-0.114","j","false","40","false","response","true",""
"","null","html-keyboard-response","230","407134","0.0-1.0-1.114","null","","","","","","Correct!"
"","871","canvas-keyboard-response","231","408509","0.0-1.0-0.115","f","true","40","false","response","true",""
"","null","html-keyboard-response","232","410022","0.0-1.0-1.115","null","","","","","","Correct!"
"","624","canvas-keyboard-response","233","411151","0.0-1.0-0.116","j","false","30","false","response","true",""
"","null","html-keyboard-response","234","412662","0.0-1.0-1.116","null","","","","","","Correct!"
"","801","canvas-keyboard-response","235","413968","0.0-1.0-0.117","j","false","40","false","response","true",""
"","null","html-keyboard-response","236","415478","0.0-1.0-1.117","null","","","","","","Correct!"
"","761","canvas-keyboard-response","237","416743","0.0-1.0-0.118","f","true","30","false","response","true",""
"","null","html-keyboard-response","238","418254","0.0-1.0-1.118","null","","","","","","Correct!"
"","614","canvas-keyboard-response","239","419372","0.0-1.0-0.119","j","false","40","false","response","true",""
"","null","html-keyboard-response","240","420886","0.0-1.0-1.119","null","","","","","","Correct!"
"","1027","canvas-keyboard-response","241","422418","0.0-1.0-0.120","f","true","10","true","response","true",""
"","null","html-keyboard-response","242","423934","0.0-1.0-1.120","null","","","","","","Correct!"
"","955","canvas-keyboard-response","243","425394","0.0-1.0-0.121","j","false","40","false","response","true",""
"","null","html-keyboard-response","244","426910","0.0-1.0-1.121","null","","","","","","Correct!"
"","761","canvas-keyboard-response","245","428176","0.0-1.0-0.122","j","false","40","false","response","true",""
"","null","html-keyboard-response","246","429686","0.0-1.0-1.122","null","","","","","","Correct!"
"","2325","canvas-keyboard-response","247","432515","0.0-1.0-0.123","f","true","30","true","response","true",""
"","null","html-keyboard-response","248","434030","0.0-1.0-1.123","null","","","","","","Correct!<br><br><b>Work faster!</b>"
"","1191","canvas-keyboard-response","249","435726","0.0-1.0-0.124","j","false","40","false","response","true",""
"","null","html-keyboard-response","250","437238","0.0-1.0-1.124","null","","","","","","Correct!"
"","778","canvas-keyboard-response","251","438521","0.0-1.0-0.125","f","true","40","true","response","true",""
"","null","html-keyboard-response","252","440030","0.0-1.0-1.125","null","","","","","","Correct!"
"","939","canvas-keyboard-response","253","441474","0.0-1.0-0.126","f","true","30","false","response","true",""
"","null","html-keyboard-response","254","442982","0.0-1.0-1.126","null","","","","","","Correct!"
"","1518","canvas-keyboard-response","255","445005","0.0-1.0-0.127","j","false","30","true","response","true",""
"","null","html-keyboard-response","256","446518","0.0-1.0-1.127","null","","","","","","Correct!"
"","1254","canvas-keyboard-response","257","448277","0.0-1.0-0.128","f","true","40","true","response","true",""
"","null","html-keyboard-response","258","449790","0.0-1.0-1.128","null","","","","","","Correct!"
"","1357","canvas-keyboard-response","259","451652","0.0-1.0-0.129","f","true","10","false","response","true",""
"","null","html-keyboard-response","260","453166","0.0-1.0-1.129","null","","","","","","Correct!"
"","1306","canvas-keyboard-response","261","454977","0.0-1.0-0.130","j","false","20","true","response","true",""
"","null","html-keyboard-response","262","456486","0.0-1.0-1.130","null","","","","","","Correct!"
"","766","canvas-keyboard-response","263","457757","0.0-1.0-0.131","f","true","30","false","response","true",""
"","null","html-keyboard-response","264","459270","0.0-1.0-1.131","null","","","","","","Correct!"
"","1292","canvas-keyboard-response","265","461067","0.0-1.0-0.132","f","true","10","false","response","true",""
"","null","html-keyboard-response","266","462582","0.0-1.0-1.132","null","","","","","","Correct!"
"","2015","canvas-keyboard-response","267","465101","0.0-1.0-0.133","f","true","30","true","response","true",""
"","null","html-keyboard-response","268","466614","0.0-1.0-1.133","null","","","","","","Correct!<br><br><b>Work faster!</b>"
"","905","canvas-keyboard-response","269","468024","0.0-1.0-0.134","f","true","20","true","response","true",""
"","null","html-keyboard-response","270","469534","0.0-1.0-1.134","null","","","","","","Correct!"
"","1903","canvas-keyboard-response","271","471942","0.0-1.0-0.135","j","false","30","false","response","true",""
"","null","html-keyboard-response","272","473454","0.0-1.0-1.135","null","","","","","","Correct!"
"","1672","canvas-keyboard-response","273","475631","0.0-1.0-0.136","j","false","30","true","response","true",""
"","null","html-keyboard-response","274","477142","0.0-1.0-1.136","null","","","","","","Correct!"
"","769","canvas-keyboard-response","275","478415","0.0-1.0-0.137","j","false","10","true","response","true",""
"","null","html-keyboard-response","276","479926","0.0-1.0-1.137","null","","","","","","Correct!"
"","777","canvas-keyboard-response","277","481207","0.0-1.0-0.138","j","false","10","true","response","true",""
"","null","html-keyboard-response","278","482718","0.0-1.0-1.138","null","","","","","","Correct!"
"","1006","canvas-keyboard-response","279","484229","0.0-1.0-0.139","f","true","10","true","response","true",""
"","null","html-keyboard-response","280","485742","0.0-1.0-1.139","null","","","","","","Correct!"
"","989","canvas-keyboard-response","281","487235","0.0-1.0-0.140","f","true","20","false","response","true",""
"","null","html-keyboard-response","282","488750","0.0-1.0-1.140","null","","","","","","Correct!"
"","718","canvas-keyboard-response","283","489972","0.0-1.0-0.141","j","false","20","false","response","true",""
"","null","html-keyboard-response","284","491486","0.0-1.0-1.141","null","","","","","","Correct!"
"","1547","canvas-keyboard-response","285","493538","0.0-1.0-0.142","j","false","40","true","response","true",""
"","null","html-keyboard-response","286","495054","0.0-1.0-1.142","null","","","","","","Correct!"
"","796","canvas-keyboard-response","287","496355","0.0-1.0-0.143","f","true","20","false","response","true",""
"","null","html-keyboard-response","288","497870","0.0-1.0-1.143","null","","","","","","Correct!"
"","812","canvas-keyboard-response","289","499187","0.0-1.0-0.144","f","true","40","false","response","true",""
"","null","html-keyboard-response","290","500702","0.0-1.0-1.144","null","","","","","","Correct!"
"","971","canvas-keyboard-response","291","502178","0.0-1.0-0.145","j","false","20","false","response","true",""
"","null","html-keyboard-response","292","503686","0.0-1.0-1.145","null","","","","","","Correct!"
"","818","canvas-keyboard-response","293","505009","0.0-1.0-0.146","j","false","10","true","response","true",""
"","null","html-keyboard-response","294","506518","0.0-1.0-1.146","null","","","","","","Correct!"
"","886","canvas-keyboard-response","295","507908","0.0-1.0-0.147","f","true","10","true","response","true",""
"","null","html-keyboard-response","296","509422","0.0-1.0-1.147","null","","","","","","Correct!"
"","790","canvas-keyboard-response","297","510717","0.0-1.0-0.148","j","false","20","false","response","true",""
"","null","html-keyboard-response","298","512230","0.0-1.0-1.148","null","","","","","","Correct!"
"","767","canvas-keyboard-response","299","513501","0.0-1.0-0.149","f","true","20","false","response","true",""
"","null","html-keyboard-response","300","515014","0.0-1.0-1.149","null","","","","","","Correct!"
"","1718","canvas-keyboard-response","301","517236","0.0-1.0-0.150","j","false","20","true","response","true",""
"","null","html-keyboard-response","302","518750","0.0-1.0-1.150","null","","","","","","Correct!"
"","925","canvas-keyboard-response","303","520179","0.0-1.0-0.151","j","false","20","true","response","true",""
"","null","html-keyboard-response","304","521694","0.0-1.0-1.151","null","","","","","","Correct!"
"","1723","canvas-keyboard-response","305","523922","0.0-1.0-0.152","f","true","40","true","response","true",""
"","null","html-keyboard-response","306","525438","0.0-1.0-1.152","null","","","","","","Correct!"
"","1530","canvas-keyboard-response","307","527473","0.0-1.0-0.153","j","false","40","true","response","true",""
"","null","html-keyboard-response","308","528982","0.0-1.0-1.153","null","","","","","","Correct!"
"","1806","canvas-keyboard-response","309","531293","0.0-1.0-0.154","f","true","30","false","response","true",""
"","null","html-keyboard-response","310","532806","0.0-1.0-1.154","null","","","","","","Correct!"
"","746","canvas-keyboard-response","311","534057","0.0-1.0-0.155","f","true","10","false","response","true",""
"","null","html-keyboard-response","312","535566","0.0-1.0-1.155","null","","","","","","Correct!"
"","702","canvas-keyboard-response","313","536772","0.0-1.0-0.156","j","false","30","false","response","true",""
"","null","html-keyboard-response","314","538286","0.0-1.0-1.156","null","","","","","","Correct!"
"","756","canvas-keyboard-response","315","539547","0.0-1.0-0.157","f","true","20","false","response","true",""
"","null","html-keyboard-response","316","541062","0.0-1.0-1.157","null","","","","","","Correct!"
"","1938","canvas-keyboard-response","317","543505","0.0-1.0-0.158","j","false","40","true","response","true",""
"","null","html-keyboard-response","318","545014","0.0-1.0-1.158","null","","","","","","Correct!"
"","696","canvas-keyboard-response","319","546215","0.0-1.0-0.159","f","true","10","false","response","true",""
"","null","html-keyboard-response","320","547726","0.0-1.0-1.159","null","","","","","","Correct!"
"","1185","canvas-keyboard-response","321","549415","0.0-1.0-0.160","f","true","20","true","response","true",""
"","null","html-keyboard-response","322","550926","0.0-1.0-1.160","null","","","","","","Correct!"
"","1335","canvas-keyboard-response","323","552765","0.0-1.0-0.161","j","false","40","false","response","true",""
"","null","html-keyboard-response","324","554278","0.0-1.0-1.161","null","","","","","","Correct!"
"","1734","canvas-keyboard-response","325","556517","0.0-1.0-0.162","j","false","40","false","response","true",""
"","null","html-keyboard-response","326","558030","0.0-1.0-1.162","null","","","","","","Correct!"
"","665","canvas-keyboard-response","327","559200","0.0-1.0-0.163","f","true","20","false","response","true",""
"","null","html-keyboard-response","328","560710","0.0-1.0-1.163","null","","","","","","Correct!"
"","733","canvas-keyboard-response","329","561948","0.0-1.0-0.164","f","true","20","true","response","true",""
"","null","html-keyboard-response","330","563462","0.0-1.0-1.164","null","","","","","","Correct!"
"","1071","canvas-keyboard-response","331","565037","0.0-1.0-0.165","j","false","10","true","response","true",""
"","null","html-keyboard-response","332","566550","0.0-1.0-1.165","null","","","","","","Correct!"
"","1276","canvas-keyboard-response","333","568331","0.0-1.0-0.166","j","false","20","true","response","true",""
"","null","html-keyboard-response","334","569846","0.0-1.0-1.166","null","","","","","","Correct!"
"","1306","canvas-keyboard-response","335","571657","0.0-1.0-0.167","j","false","30","true","response","true",""
"","null","html-keyboard-response","336","573166","0.0-1.0-1.167","null","","","","","","Correct!"
"","1895","canvas-keyboard-response","337","575565","0.0-1.0-0.168","f","true","20","true","response","true",""
"","null","html-keyboard-response","338","577078","0.0-1.0-1.168","null","","","","","","Correct!"
"","795","canvas-keyboard-response","339","578378","0.0-1.0-0.169","f","true","30","false","response","true",""
"","null","html-keyboard-response","340","579894","0.0-1.0-1.169","null","","","","","","Correct!"
"","821","canvas-keyboard-response","341","581219","0.0-1.0-0.170","j","false","30","false","response","true",""
"","null","html-keyboard-response","342","582734","0.0-1.0-1.170","null","","","","","","Correct!"
"","1555","canvas-keyboard-response","343","584793","0.0-1.0-0.171","j","false","20","true","response","true",""
"","null","html-keyboard-response","344","586302","0.0-1.0-1.171","null","","","","","","Correct!"
"","790","canvas-keyboard-response","345","587597","0.0-1.0-0.172","j","false","30","false","response","true",""
"","null","html-keyboard-response","346","589110","0.0-1.0-1.172","null","","","","","","Correct!"
"","1304","canvas-keyboard-response","347","590918","0.0-1.0-0.173","f","true","30","true","response","true",""
"","null","html-keyboard-response","348","592430","0.0-1.0-1.173","null","","","","","","Correct!"
"","883","canvas-keyboard-response","349","593818","0.0-1.0-0.174","j","true","30","true","response","false",""
"","null","html-keyboard-response","350","595326","0.0-1.0-1.174","null","","","","","","Wrong"
"","2709","canvas-keyboard-response","351","598540","0.0-1.0-0.175","j","false","30","true","response","true",""
"","null","html-keyboard-response","352","600054","0.0-1.0-1.175","null","","","","","","Correct!<br><br><b>Work faster!</b>"
"","831","canvas-keyboard-response","353","601390","0.0-1.0-0.176","f","true","10","false","response","true",""
"","null","html-keyboard-response","354","602902","0.0-1.0-1.176","null","","","","","","Correct!"
"","1094","canvas-keyboard-response","355","604501","0.0-1.0-0.177","f","true","20","false","response","true",""
"","null","html-keyboard-response","356","606014","0.0-1.0-1.177","null","","","","","","Correct!"
"","927","canvas-keyboard-response","357","607446","0.0-1.0-0.178","j","false","40","false","response","true",""
"","null","html-keyboard-response","358","608958","0.0-1.0-1.178","null","","","","","","Correct!"
"","1169","canvas-keyboard-response","359","610632","0.0-1.0-0.179","j","false","20","true","response","true",""
"","null","html-keyboard-response","360","612142","0.0-1.0-1.179","null","","","","","","Correct!"
"","1637","canvas-keyboard-response","361","614284","0.0-1.0-0.180","f","true","40","false","response","true",""
"","null","html-keyboard-response","362","615798","0.0-1.0-1.180","null","","","","","","Correct!"
"","1222","canvas-keyboard-response","363","617525","0.0-1.0-0.181","j","false","20","false","response","true",""
"","null","html-keyboard-response","364","619038","0.0-1.0-1.181","null","","","","","","Correct!"
"","1564","canvas-keyboard-response","365","621107","0.0-1.0-0.182","f","true","20","true","response","true",""
"","null","html-keyboard-response","366","622622","0.0-1.0-1.182","null","","","","","","Correct!"
"","1303","canvas-keyboard-response","367","624429","0.0-1.0-0.183","f","true","20","true","response","true",""
"","null","html-keyboard-response","368","625942","0.0-1.0-1.183","null","","","","","","Correct!"
"","1093","canvas-keyboard-response","369","627539","0.0-1.0-0.184","f","true","10","true","response","true",""
"","null","html-keyboard-response","370","629054","0.0-1.0-1.184","null","","","","","","Correct!"
"","977","canvas-keyboard-response","371","630535","0.0-1.0-0.185","f","true","20","true","response","true",""
"","null","html-keyboard-response","372","632046","0.0-1.0-1.185","null","","","","","","Correct!"
"","1979","canvas-keyboard-response","373","634530","0.0-1.0-0.186","j","false","30","true","response","true",""
"","null","html-keyboard-response","374","636038","0.0-1.0-1.186","null","","","","","","Correct!"
"","974","canvas-keyboard-response","375","637517","0.0-1.0-0.187","f","true","30","true","response","true",""
"","null","html-keyboard-response","376","639030","0.0-1.0-1.187","null","","","","","","Correct!"
"","938","canvas-keyboard-response","377","640473","0.0-1.0-0.188","f","true","20","true","response","true",""
"","null","html-keyboard-response","378","641982","0.0-1.0-1.188","null","","","","","","Correct!"
"","651","canvas-keyboard-response","379","643138","0.0-1.0-0.189","f","true","20","false","response","true",""
"","null","html-keyboard-response","380","644654","0.0-1.0-1.189","null","","","","","","Correct!"
"","834","canvas-keyboard-response","381","645992","0.0-1.0-0.190","f","true","40","false","response","true",""
"","null","html-keyboard-response","382","647502","0.0-1.0-1.190","null","","","","","","Correct!"
"","2448","canvas-keyboard-response","383","650454","0.0-1.0-0.191","f","true","10","true","response","true",""
"","null","html-keyboard-response","384","651966","0.0-1.0-1.191","null","","","","","","Correct!<br><br><b>Work faster!</b>"
"","692","canvas-keyboard-response","385","653163","0.0-1.0-0.192","f","true","30","false","response","true",""
"","null","html-keyboard-response","386","654678","0.0-1.0-1.192","null","","","","","","Correct!"
"","796","canvas-keyboard-response","387","655979","0.0-1.0-0.193","f","true","40","true","response","true",""
"","null","html-keyboard-response","388","657494","0.0-1.0-1.193","null","","","","","","Correct!"
"","1038","canvas-keyboard-response","389","659037","0.0-1.0-0.194","j","false","10","true","response","true",""
"","null","html-keyboard-response","390","660550","0.0-1.0-1.194","null","","","","","","Correct!"
"","1208","canvas-keyboard-response","391","662263","0.0-1.0-0.195","f","true","10","true","response","true",""
"","null","html-keyboard-response","392","663774","0.0-1.0-1.195","null","","","","","","Correct!"
"","2668","canvas-keyboard-response","393","666947","0.0-1.0-0.196","j","false","40","true","response","true",""
"","null","html-keyboard-response","394","668462","0.0-1.0-1.196","null","","","","","","Correct!<br><br><b>Work faster!</b>"
"","930","canvas-keyboard-response","395","669897","0.0-1.0-0.197","j","false","20","false","response","true",""
"","null","html-keyboard-response","396","671406","0.0-1.0-1.197","null","","","","","","Correct!"
"","627","canvas-keyboard-response","397","672538","0.0-1.0-0.198","j","false","10","false","response","true",""
"","null","html-keyboard-response","398","674054","0.0-1.0-1.198","null","","","","","","Correct!"
"","851","canvas-keyboard-response","399","675410","0.0-1.0-0.199","j","false","40","false","response","true",""
"","null","html-keyboard-response","400","676926","0.0-1.0-1.199","null","","","","","","Correct!"
"","944","canvas-keyboard-response","401","678375","0.0-1.0-0.200","j","false","40","false","response","true",""
"","null","html-keyboard-response","402","679886","0.0-1.0-1.200","null","","","","","","Correct!"
"","672","canvas-keyboard-response","403","681063","0.0-1.0-0.201","j","false","20","false","response","true",""
"","null","html-keyboard-response","404","682574","0.0-1.0-1.201","null","","","","","","Correct!"
"","705","canvas-keyboard-response","405","683783","0.0-1.0-0.202","f","true","30","false","response","true",""
"","null","html-keyboard-response","406","685294","0.0-1.0-1.202","null","","","","","","Correct!"
"","1002","canvas-keyboard-response","407","686801","0.0-1.0-0.203","f","true","30","true","response","true",""
"","null","html-keyboard-response","408","688310","0.0-1.0-1.203","null","","","","","","Correct!"
"","1310","canvas-keyboard-response","409","690125","0.0-1.0-0.204","j","false","30","false","response","true",""
"","null","html-keyboard-response","410","691638","0.0-1.0-1.204","null","","","","","","Correct!"
"","801","canvas-keyboard-response","411","692944","0.0-1.0-0.205","j","false","10","true","response","true",""
"","null","html-keyboard-response","412","694454","0.0-1.0-1.205","null","","","","","","Correct!"
"","1105","canvas-keyboard-response","413","696064","0.0-1.0-0.206","j","false","20","false","response","true",""
"","null","html-keyboard-response","414","697574","0.0-1.0-1.206","null","","","","","","Correct!"
"","1963","canvas-keyboard-response","415","700042","0.0-1.0-0.207","j","false","20","true","response","true",""
"","null","html-keyboard-response","416","701558","0.0-1.0-1.207","null","","","","","","Correct!"
"","1072","canvas-keyboard-response","417","703135","0.0-1.0-0.208","f","true","40","true","response","true",""
"","null","html-keyboard-response","418","704646","0.0-1.0-1.208","null","","","","","","Correct!"
"","755","canvas-keyboard-response","419","705905","0.0-1.0-0.209","f","true","30","true","response","true",""
"","null","html-keyboard-response","420","707414","0.0-1.0-1.209","null","","","","","","Correct!"
"","703","canvas-keyboard-response","421","708621","0.0-1.0-0.210","f","true","10","false","response","true",""
"","null","html-keyboard-response","422","710134","0.0-1.0-1.210","null","","","","","","Correct!"
"","654","canvas-keyboard-response","423","711292","0.0-1.0-0.211","f","true","10","false","response","true",""
"","null","html-keyboard-response","424","712806","0.0-1.0-1.211","null","","","","","","Correct!"
"","1198","canvas-keyboard-response","425","714509","0.0-1.0-0.212","f","true","20","true","response","true",""
"","null","html-keyboard-response","426","716022","0.0-1.0-1.212","null","","","","","","Correct!"
"","1201","canvas-keyboard-response","427","717728","0.0-1.0-0.213","j","false","10","true","response","true",""
"","null","html-keyboard-response","428","719238","0.0-1.0-1.213","null","","","","","","Correct!"
"","832","canvas-keyboard-response","429","720574","0.0-1.0-0.214","f","true","10","true","response","true",""
"","null","html-keyboard-response","430","722086","0.0-1.0-1.214","null","","","","","","Correct!"
"","1946","canvas-keyboard-response","431","724537","0.0-1.0-0.215","f","true","10","false","response","true",""
"","null","html-keyboard-response","432","726046","0.0-1.0-1.215","null","","","","","","Correct!"
"","1223","canvas-keyboard-response","433","727774","0.0-1.0-0.216","f","true","40","false","response","true",""
"","null","html-keyboard-response","434","729286","0.0-1.0-1.216","null","","","","","","Correct!"
"","1641","canvas-keyboard-response","435","731432","0.0-1.0-0.217","f","true","20","true","response","true",""
"","null","html-keyboard-response","436","732942","0.0-1.0-1.217","null","","","","","","Correct!"
"","738","canvas-keyboard-response","437","734185","0.0-1.0-0.218","j","false","20","false","response","true",""
"","null","html-keyboard-response","438","735694","0.0-1.0-1.218","null","","","","","","Correct!"
"","643","canvas-keyboard-response","439","736841","0.0-1.0-0.219","f","true","30","false","response","true",""
"","null","html-keyboard-response","440","738350","0.0-1.0-1.219","null","","","","","","Correct!"
"","724","canvas-keyboard-response","441","739578","0.0-1.0-0.220","f","true","10","false","response","true",""
"","null","html-keyboard-response","442","741094","0.0-1.0-1.220","null","","","","","","Correct!"
"","688","canvas-keyboard-response","443","742286","0.0-1.0-0.221","j","false","10","false","response","true",""
"","null","html-keyboard-response","444","743798","0.0-1.0-1.221","null","","","","","","Correct!"
"","724","canvas-keyboard-response","445","745026","0.0-1.0-0.222","f","true","10","false","response","true",""
"","null","html-keyboard-response","446","746542","0.0-1.0-1.222","null","","","","","","Correct!"
"","1184","canvas-keyboard-response","447","748231","0.0-1.0-0.223","f","true","40","false","response","true",""
"","null","html-keyboard-response","448","749742","0.0-1.0-1.223","null","","","","","","Correct!"
"","1172","canvas-keyboard-response","449","751419","0.0-1.0-0.224","f","true","30","true","response","true",""
"","null","html-keyboard-response","450","752934","0.0-1.0-1.224","null","","","","","","Correct!"
"","2540","canvas-keyboard-response","451","755979","0.0-1.0-0.225","j","false","20","false","response","true",""
"","null","html-keyboard-response","452","757494","0.0-1.0-1.225","null","","","","","","Correct!<br><br><b>Work faster!</b>"
"","1842","canvas-keyboard-response","453","759841","0.0-1.0-0.226","j","false","40","true","response","true",""
"","null","html-keyboard-response","454","761350","0.0-1.0-1.226","null","","","","","","Correct!"
"","1401","canvas-keyboard-response","455","763256","0.0-1.0-0.227","f","true","30","true","response","true",""
"","null","html-keyboard-response","456","764766","0.0-1.0-1.227","null","","","","","","Correct!"
"","2389","canvas-keyboard-response","457","767660","0.0-1.0-0.228","j","false","30","true","response","true",""
"","null","html-keyboard-response","458","769174","0.0-1.0-1.228","null","","","","","","Correct!<br><br><b>Work faster!</b>"
"","1539","canvas-keyboard-response","459","771223","0.0-1.0-0.229","j","false","30","true","response","true",""
"","null","html-keyboard-response","460","772734","0.0-1.0-1.229","null","","","","","","Correct!"
"","1456","canvas-keyboard-response","461","774694","0.0-1.0-0.230","f","true","40","true","response","true",""
"","320","html-keyboard-response","462","775518","0.0-1.0-1.230","f","","","","","","Correct!"
"","2782","canvas-keyboard-response","463","778804","0.0-1.0-0.231","f","true","40","true","response","true",""
"","null","html-keyboard-response","464","780318","0.0-1.0-1.231","null","","","","","","Correct!<br><br><b>Work faster!</b>"
"","1501","canvas-keyboard-response","465","782324","0.0-1.0-0.232","j","false","30","true","response","true",""
"","null","html-keyboard-response","466","783838","0.0-1.0-1.232","null","","","","","","Correct!"
"","2925","canvas-keyboard-response","467","787268","0.0-1.0-0.233","f","true","10","true","response","true",""
"","null","html-keyboard-response","468","788782","0.0-1.0-1.233","null","","","","","","Correct!<br><br><b>Work faster!</b>"
"","952","canvas-keyboard-response","469","790238","0.0-1.0-0.234","f","true","20","true","response","true",""
"","null","html-keyboard-response","470","791750","0.0-1.0-1.234","null","","","","","","Correct!"
"","1355","canvas-keyboard-response","471","793610","0.0-1.0-0.235","f","true","40","true","response","true",""
"","null","html-keyboard-response","472","795126","0.0-1.0-1.235","null","","","","","","Correct!"
"","860","canvas-keyboard-response","473","796490","0.0-1.0-0.236","j","false","10","false","response","true",""
"","null","html-keyboard-response","474","798006","0.0-1.0-1.236","null","","","","","","Correct!"
"","507","canvas-keyboard-response","475","799018","0.0-1.0-0.237","j","false","10","false","response","true",""
"","null","html-keyboard-response","476","800534","0.0-1.0-1.237","null","","","","","","Correct!"
"","1108","canvas-keyboard-response","477","802147","0.0-1.0-0.238","j","false","30","true","response","true",""
"","null","html-keyboard-response","478","803662","0.0-1.0-1.238","null","","","","","","Correct!"
"","1043","canvas-keyboard-response","479","805209","0.0-1.0-0.239","f","true","30","false","response","true",""
"","null","html-keyboard-response","480","806718","0.0-1.0-1.239","null","","","","","","Correct!"
"","2723","canvas-keyboard-response","481","809945","0.0-1.0-0.240","f","true","10","true","response","true",""
"","null","html-keyboard-response","482","811454","0.0-1.0-1.240","null","","","","","","Correct!<br><br><b>Work faster!</b>"
"","876","canvas-keyboard-response","483","812835","0.0-1.0-0.241","f","true","30","false","response","true",""
"","null","html-keyboard-response","484","814350","0.0-1.0-1.241","null","","","","","","Correct!"
"","780","canvas-keyboard-response","485","815634","0.0-1.0-0.242","j","false","20","false","response","true",""
"","null","html-keyboard-response","486","817150","0.0-1.0-1.242","null","","","","","","Correct!"
"","967","canvas-keyboard-response","487","818622","0.0-1.0-0.243","j","false","10","false","response","true",""
"","null","html-keyboard-response","488","820134","0.0-1.0-1.243","null","","","","","","Correct!"
"","1228","canvas-keyboard-response","489","821867","0.0-1.0-0.244","j","false","40","true","response","true",""
"","null","html-keyboard-response","490","823382","0.0-1.0-1.244","null","","","","","","Correct!"
"","1228","canvas-keyboard-response","491","825115","0.0-1.0-0.245","j","false","20","true","response","true",""
"","null","html-keyboard-response","492","826630","0.0-1.0-1.245","null","","","","","","Correct!"
"","993","canvas-keyboard-response","493","828128","0.0-1.0-0.246","f","true","40","true","response","true",""
"","null","html-keyboard-response","494","829638","0.0-1.0-1.246","null","","","","","","Correct!"
"","1455","canvas-keyboard-response","495","831597","0.0-1.0-0.247","j","false","10","false","response","true",""
"","null","html-keyboard-response","496","833110","0.0-1.0-1.247","null","","","","","","Correct!"
"","1491","canvas-keyboard-response","497","835106","0.0-1.0-0.248","j","false","20","true","response","true",""
"","null","html-keyboard-response","498","836614","0.0-1.0-1.248","null","","","","","","Correct!"
"","930","canvas-keyboard-response","499","838049","0.0-1.0-0.249","f","true","10","false","response","true",""
"","null","html-keyboard-response","500","839558","0.0-1.0-1.249","null","","","","","","Correct!"
"","2263","canvas-keyboard-response","501","842326","0.0-1.0-0.250","f","true","40","false","response","true",""
"","null","html-keyboard-response","502","843838","0.0-1.0-1.250","null","","","","","","Correct!<br><br><b>Work faster!</b>"
"","1508","canvas-keyboard-response","503","845850","0.0-1.0-0.251","j","false","20","true","response","true",""
"","null","html-keyboard-response","504","847366","0.0-1.0-1.251","null","","","","","","Correct!"
"","786","canvas-keyboard-response","505","848657","0.0-1.0-0.252","j","false","30","false","response","true",""
"","null","html-keyboard-response","506","850166","0.0-1.0-1.252","null","","","","","","Correct!"
"","2549","canvas-keyboard-response","507","853220","0.0-1.0-0.253","f","true","30","true","response","true",""
"","null","html-keyboard-response","508","854734","0.0-1.0-1.253","null","","","","","","Correct!<br><br><b>Work faster!</b>"
"","823","canvas-keyboard-response","509","856062","0.0-1.0-0.254","f","true","30","false","response","true",""
"","null","html-keyboard-response","510","857574","0.0-1.0-1.254","null","","","","","","Correct!"
"","837","canvas-keyboard-response","511","858916","0.0-1.0-0.255","f","true","10","true","response","true",""
"","null","html-keyboard-response","512","860430","0.0-1.0-1.255","null","","","","","","Correct!"
"","1306","canvas-keyboard-response","513","862241","0.0-1.0-0.256","j","false","20","false","response","true",""
"","null","html-keyboard-response","514","863750","0.0-1.0-1.256","null","","","","","","Correct!"
"","660","canvas-keyboard-response","515","864915","0.0-1.0-0.257","j","false","10","false","response","true",""
"","null","html-keyboard-response","516","866430","0.0-1.0-1.257","null","","","","","","Correct!"
"","1298","canvas-keyboard-response","517","868233","0.0-1.0-0.258","j","false","40","true","response","true",""
"","null","html-keyboard-response","518","869742","0.0-1.0-1.258","null","","","","","","Correct!"
"","1581","canvas-keyboard-response","519","871828","0.0-1.0-0.259","j","false","30","true","response","true",""
"","null","html-keyboard-response","520","873342","0.0-1.0-1.259","null","","","","","","Correct!"
"","1218","canvas-keyboard-response","521","875064","0.0-1.0-0.260","f","true","20","true","response","true",""
"","null","html-keyboard-response","522","876574","0.0-1.0-1.260","null","","","","","","Correct!"
"","926","canvas-keyboard-response","523","878005","0.0-1.0-0.261","f","true","40","true","response","true",""
"","null","html-keyboard-response","524","879518","0.0-1.0-1.261","null","","","","","","Correct!"
"","1235","canvas-keyboard-response","525","881258","0.0-1.0-0.262","j","false","30","true","response","true",""
"","null","html-keyboard-response","526","882774","0.0-1.0-1.262","null","","","","","","Correct!"
"","1514","canvas-keyboard-response","527","884793","0.0-1.0-0.263","f","true","40","true","response","true",""
"","null","html-keyboard-response","528","886302","0.0-1.0-1.263","null","","","","","","Correct!"
"","817","canvas-keyboard-response","529","887624","0.0-1.0-0.264","f","true","30","false","response","true",""
"","null","html-keyboard-response","530","889134","0.0-1.0-1.264","null","","","","","","Correct!"
"","751","canvas-keyboard-response","531","890390","0.0-1.0-0.265","f","true","10","false","response","true",""
"","null","html-keyboard-response","532","891902","0.0-1.0-1.265","null","","","","","","Correct!"
"","1407","canvas-keyboard-response","533","893814","0.0-1.0-0.266","f","true","30","true","response","true",""
"","null","html-keyboard-response","534","895326","0.0-1.0-1.266","null","","","","","","Correct!"
"","971","canvas-keyboard-response","535","896802","0.0-1.0-0.267","f","true","30","false","response","true",""
"","null","html-keyboard-response","536","898318","0.0-1.0-1.267","null","","","","","","Correct!"
"","862","canvas-keyboard-response","537","899684","0.0-1.0-0.268","f","true","30","true","response","true",""
"","null","html-keyboard-response","538","901198","0.0-1.0-1.268","null","","","","","","Correct!"
"","887","canvas-keyboard-response","539","902590","0.0-1.0-0.269","f","true","10","true","response","true",""
"","null","html-keyboard-response","540","904102","0.0-1.0-1.269","null","","","","","","Correct!"
"","881","canvas-keyboard-response","541","905488","0.0-1.0-0.270","f","true","20","false","response","true",""
"","null","html-keyboard-response","542","906998","0.0-1.0-1.270","null","","","","","","Correct!"
"","1119","canvas-keyboard-response","543","908622","0.0-1.0-0.271","j","false","30","false","response","true",""
"","null","html-keyboard-response","544","910134","0.0-1.0-1.271","null","","","","","","Correct!"
"","1615","canvas-keyboard-response","545","912254","0.0-1.0-0.272","j","false","40","true","response","true",""
"","null","html-keyboard-response","546","913766","0.0-1.0-1.272","null","","","","","","Correct!"
"","1371","canvas-keyboard-response","547","915642","0.0-1.0-0.273","f","true","30","true","response","true",""
"","null","html-keyboard-response","548","917150","0.0-1.0-1.273","null","","","","","","Correct!"
"","1134","canvas-keyboard-response","549","918789","0.0-1.0-0.274","j","false","30","false","response","true",""
"","null","html-keyboard-response","550","920302","0.0-1.0-1.274","null","","","","","","Correct!"
"","1435","canvas-keyboard-response","551","922241","0.0-1.0-0.275","j","false","40","true","response","true",""
"","null","html-keyboard-response","552","923750","0.0-1.0-1.275","null","","","","","","Correct!"
"","1037","canvas-keyboard-response","553","925291","0.0-1.0-0.276","j","false","10","false","response","true",""
"","null","html-keyboard-response","554","926806","0.0-1.0-1.276","null","","","","","","Correct!"
"","1095","canvas-keyboard-response","555","928406","0.0-1.0-0.277","f","true","10","true","response","true",""
"","null","html-keyboard-response","556","929918","0.0-1.0-1.277","null","","","","","","Correct!"
"","695","canvas-keyboard-response","557","931117","0.0-1.0-0.278","f","true","30","false","response","true",""
"","null","html-keyboard-response","558","932630","0.0-1.0-1.278","null","","","","","","Correct!"
"","866","canvas-keyboard-response","559","934001","0.0-1.0-0.279","j","false","20","true","response","true",""
"","null","html-keyboard-response","560","935510","0.0-1.0-1.279","null","","","","","","Correct!"
"","637","canvas-keyboard-response","561","936652","0.0-1.0-0.280","j","false","10","false","response","true",""
"","null","html-keyboard-response","562","938166","0.0-1.0-1.280","null","","","","","","Correct!"
"","2016","canvas-keyboard-response","563","940686","0.0-1.0-0.281","f","true","20","true","response","true",""
"","null","html-keyboard-response","564","942198","0.0-1.0-1.281","null","","","","","","Correct!<br><br><b>Work faster!</b>"
"","684","canvas-keyboard-response","565","943387","0.0-1.0-0.282","j","false","10","false","response","true",""
"","null","html-keyboard-response","566","944902","0.0-1.0-1.282","null","","","","","","Correct!"
"","808","canvas-keyboard-response","567","946215","0.0-1.0-0.283","f","true","20","true","response","true",""
"","null","html-keyboard-response","568","947726","0.0-1.0-1.283","null","","","","","","Correct!"
"","691","canvas-keyboard-response","569","948921","0.0-1.0-0.284","f","true","10","false","response","true",""
"","null","html-keyboard-response","570","950438","0.0-1.0-1.284","null","","","","","","Correct!"
"","935","canvas-keyboard-response","571","951878","0.0-1.0-0.285","f","true","20","true","response","true",""
"","null","html-keyboard-response","572","953390","0.0-1.0-1.285","null","","","","","","Correct!"
"","675","canvas-keyboard-response","573","954569","0.0-1.0-0.286","j","false","20","false","response","true",""
"","null","html-keyboard-response","574","956078","0.0-1.0-1.286","null","","","","","","Correct!"
"","1352","canvas-keyboard-response","575","957935","0.0-1.0-0.287","j","false","20","true","response","true",""
"","null","html-keyboard-response","576","959446","0.0-1.0-1.287","null","","","","","","Correct!"
"","1134","canvas-keyboard-response","577","961085","0.0-1.0-0.288","f","true","40","true","response","true",""
"","null","html-keyboard-response","578","962598","0.0-1.0-1.288","null","","","","","","Correct!"
"","1451","canvas-keyboard-response","579","964553","0.0-1.0-0.289","j","false","30","true","response","true",""
"","null","html-keyboard-response","580","966062","0.0-1.0-1.289","null","","","","","","Correct!"
"","1667","canvas-keyboard-response","581","968233","0.0-1.0-0.290","j","false","40","true","response","true",""
"","null","html-keyboard-response","582","969742","0.0-1.0-1.290","null","","","","","","Correct!"
"","748","canvas-keyboard-response","583","970995","0.0-1.0-0.291","f","true","30","false","response","true",""
"","null","html-keyboard-response","584","972510","0.0-1.0-1.291","null","","","","","","Correct!"
"","889","canvas-keyboard-response","585","973904","0.0-1.0-0.292","j","false","30","false","response","true",""
"","null","html-keyboard-response","586","975414","0.0-1.0-1.292","null","","","","","","Correct!"
"","592","canvas-keyboard-response","587","976510","0.0-1.0-0.293","j","false","10","false","response","true",""
"","null","html-keyboard-response","588","978022","0.0-1.0-1.293","null","","","","","","Correct!"
"","1048","canvas-keyboard-response","589","979574","0.0-1.0-0.294","f","true","30","true","response","true",""
"","null","html-keyboard-response","590","981086","0.0-1.0-1.294","null","","","","","","Correct!"
"","756","canvas-keyboard-response","591","982347","0.0-1.0-0.295","j","false","10","false","response","true",""
"","null","html-keyboard-response","592","983862","0.0-1.0-1.295","null","","","","","","Correct!"
"","1415","canvas-keyboard-response","593","985781","0.0-1.0-0.296","f","true","40","true","response","true",""
"","null","html-keyboard-response","594","987294","0.0-1.0-1.296","null","","","","","","Correct!"
"","850","canvas-keyboard-response","595","988648","0.0-1.0-0.297","j","false","10","true","response","true",""
"","null","html-keyboard-response","596","990158","0.0-1.0-1.297","null","","","","","","Correct!"
"","721","canvas-keyboard-response","597","991384","0.0-1.0-0.298","f","true","40","false","response","true",""
"","null","html-keyboard-response","598","992894","0.0-1.0-1.298","null","","","","","","Correct!"
"","723","canvas-keyboard-response","599","994121","0.0-1.0-0.299","j","false","40","false","response","true",""
"","null","html-keyboard-response","600","995630","0.0-1.0-1.299","null","","","","","","Correct!"
"","694","canvas-keyboard-response","601","996828","0.0-1.0-0.300","f","true","40","false","response","true",""
"","null","html-keyboard-response","602","998342","0.0-1.0-1.300","null","","","","","","Correct!"
"","690","canvas-keyboard-response","603","999536","0.0-1.0-0.301","f","true","20","false","response","true",""
"","null","html-keyboard-response","604","1001046","0.0-1.0-1.301","null","","","","","","Correct!"
"","1080","canvas-keyboard-response","605","1002631","0.0-1.0-0.302","j","false","10","true","response","true",""
"","null","html-keyboard-response","606","1004142","0.0-1.0-1.302","null","","","","","","Correct!"
"","625","canvas-keyboard-response","607","1005272","0.0-1.0-0.303","j","false","20","false","response","true",""
"","null","html-keyboard-response","608","1006782","0.0-1.0-1.303","null","","","","","","Correct!"
"","1101","canvas-keyboard-response","609","1008388","0.0-1.0-0.304","j","false","40","true","response","true",""
"","null","html-keyboard-response","610","1009902","0.0-1.0-1.304","null","","","","","","Correct!"
"","754","canvas-keyboard-response","611","1011160","0.0-1.0-0.305","f","true","20","false","response","true",""
"","null","html-keyboard-response","612","1012670","0.0-1.0-1.305","null","","","","","","Correct!"
"","899","canvas-keyboard-response","613","1014073","0.0-1.0-0.306","j","false","40","true","response","true",""
"","null","html-keyboard-response","614","1015582","0.0-1.0-1.306","null","","","","","","Correct!"
"","734","canvas-keyboard-response","615","1016821","0.0-1.0-0.307","f","true","10","false","response","true",""
"","null","html-keyboard-response","616","1018334","0.0-1.0-1.307","null","","","","","","Correct!"
"","1487","canvas-keyboard-response","617","1020326","0.0-1.0-0.308","f","true","40","true","response","true",""
"","null","html-keyboard-response","618","1021838","0.0-1.0-1.308","null","","","","","","Correct!"
"","689","canvas-keyboard-response","619","1023032","0.0-1.0-0.309","f","true","30","false","response","true",""
"","null","html-keyboard-response","620","1024542","0.0-1.0-1.309","null","","","","","","Correct!"
"","1606","canvas-keyboard-response","621","1026653","0.0-1.0-0.310","j","false","20","true","response","true",""
"","null","html-keyboard-response","622","1028166","0.0-1.0-1.310","null","","","","","","Correct!"
"","1710","canvas-keyboard-response","623","1030381","0.0-1.0-0.311","j","false","30","true","response","true",""
"","null","html-keyboard-response","624","1031894","0.0-1.0-1.311","null","","","","","","Correct!"
"","571","canvas-keyboard-response","625","1032970","0.0-1.0-0.312","f","true","10","false","response","true",""
"","null","html-keyboard-response","626","1034486","0.0-1.0-1.312","null","","","","","","Correct!"
"","759","canvas-keyboard-response","627","1035749","0.0-1.0-0.313","f","true","10","false","response","true",""
"","null","html-keyboard-response","628","1037262","0.0-1.0-1.313","null","","","","","","Correct!"
"","663","canvas-keyboard-response","629","1038430","0.0-1.0-0.314","j","false","20","false","response","true",""
"","null","html-keyboard-response","630","1039942","0.0-1.0-1.314","null","","","","","","Correct!"
"","1294","canvas-keyboard-response","631","1041741","0.0-1.0-0.315","j","false","40","true","response","true",""
"","null","html-keyboard-response","632","1043254","0.0-1.0-1.315","null","","","","","","Correct!"
"","1069","canvas-keyboard-response","633","1044828","0.0-1.0-0.316","j","false","10","true","response","true",""
"","null","html-keyboard-response","634","1046342","0.0-1.0-1.316","null","","","","","","Correct!"
"","735","canvas-keyboard-response","635","1047581","0.0-1.0-0.317","f","true","40","false","response","true",""
"","null","html-keyboard-response","636","1049094","0.0-1.0-1.317","null","","","","","","Correct!"
"","791","canvas-keyboard-response","637","1050389","0.0-1.0-0.318","f","true","10","true","response","true",""
"","null","html-keyboard-response","638","1051902","0.0-1.0-1.318","null","","","","","","Correct!"
"","1051","canvas-keyboard-response","639","1053458","0.0-1.0-0.319","j","false","20","false","response","true",""
"","null","html-keyboard-response","640","1054974","0.0-1.0-1.319","null","","","","","","Correct!"
"","20186","html-button-response","641","1075677","0.0-2.0","0","","","","","","<p><b>Results</b></p>
          <p>In the table, you can see mean response times for different search conditions:</p>
          <table><tr><th>Search type</th><th>Set size</th><th>Mean RT present</th><th>Mean RT absent</th></tr><tr><td>Feature</td><td>10</td><td>870.9</td><td>859.3</td></tr><tr><td>Feature</td><td>20</td><td>815.4</td><td>984.95</td></tr><tr><td>Feature</td><td>30</td><td>864.55</td><td>1164.7</td></tr><tr><td>Feature</td><td>40</td><td>1020.85</td><td>1218.35</td></tr><tr><td>Conjunction</td><td>10</td><td>1304.5</td><td>917.75</td></tr><tr><td>Conjunction</td><td>20</td><td>1258.25</td><td>1263.1</td></tr><tr><td>Conjunction</td><td>30</td><td>1327.2</td><td>1836.05</td></tr><tr><td>Conjunction</td><td>40</td><td>1458.55</td><td>1757.85</td></tr></table>
          <p>Press any key to <b>save</b> the data and complete the experiment. Thank you!</p>"
